ExperimentName,Subject,Session,DataFile.Basename,DebugSession,Display.RefreshRate,ExternalStimulus,Group,RandomSeed,SessionDate,SessionStartDateTimeUtc,SessionTime,TrainingSession,UsingfMRI,Run,AvgRunACC,AvgRunReturnACC,AvgRunRT,AvgTotalACC,AvgTotalRT,Intensity,Painful,PainfulRating.DEVICE,Procedure[Run],Rest.DEVICE,RunBonus,RunList,RunList.Cycle,RunList.Sample,Running[Run],Salience,TotalBonus,Unpleasantness,Block,AvgBlockACC,AvgBlockRT,BlockACC,BlockBonus,BlockList,BlockList.Cycle,BlockList.Sample,BlockTrials,NumCorrect,NumTrials,Procedure[Block],Running[Block],Task,Trials1,Trials2,Trials3,Trial,CorrectResponse,DisplayStim.ACC,DisplayStim.CRESP,DisplayStim.DEVICE,DisplayStim.DurationError,DisplayStim.OnsetDelay,DisplayStim.OnsetTime,DisplayStim.OnsetToOnsetTime,DisplayStim.RESP,DisplayStim.RT,DisplayStim.RTTime,ITIDur,Match,Phase,PhaseSwitch,Procedure[Trial],Running[Trial],StimPath,Stimulus,TrialList1,TrialList1.Cycle,TrialList1.Sample,TrialList2,TrialList2.Cycle,TrialList2.Sample,TrialList3,TrialList3.Cycle,TrialList3.Sample
ConcurrentTasks,22,4,ConcurrentTasks-Data-22-4,no,60.039,pain,1,-1493553276,07-13-2018,7/13/2018 8:47:29 PM,16:47:29,no,no,1,,,,,,,,,RunProc,,,1,1,1,RunList,,,,1,90.9091,601.545,10,$6.15 ,52,2,1,11,,,BlockProc,BlockList,branch,3,5,3,1,f,1,f,Keyboard,0,34,100802,516,f,478,101280,3000,match,1,1,TrialProc,TrialList1,Stimulus\SQUARET.png,0,1,1,1,,,,,,
ConcurrentTasks,22,4,ConcurrentTasks-Data-22-4,no,60.039,pain,1,-1493553276,07-13-2018,7/13/2018 8:47:29 PM,16:47:29,no,no,1,,,,,,,,,RunProc,,,1,1,1,RunList,,,,1,90.9091,601.545,10,$6.15 ,52,2,1,11,,,BlockProc,BlockList,branch,3,5,3,2,j,1,j,Keyboard,0,34,104336,516,j,544,104880,3000,random,1,,TrialProc,TrialList1,Stimulus\SQUAREE.png,4,2,1,2,,,,,,
ConcurrentTasks,22,4,ConcurrentTasks-Data-22-4,no,60.039,pain,1,-1493553276,07-13-2018,7/13/2018 8:47:29 PM,16:47:29,no,no,1,,,,,,,,,RunProc,,,1,1,1,RunList,,,,1,90.9091,601.545,10,$6.15 ,52,2,1,11,,,BlockProc,BlockList,branch,3,5,3,3,j,1,j,Keyboard,0,33,107869,517,j,531,108400,3200,random,1,,TrialProc,TrialList1,Stimulus\SQUAREL.png,3,2,1,3,,,,,,
ConcurrentTasks,22,4,ConcurrentTasks-Data-22-4,no,60.039,pain,1,-1493553276,07-13-2018,7/13/2018 8:47:29 PM,16:47:29,no,no,1,,,,,,,,,RunProc,,,1,1,1,RunList,,,,1,90.9091,601.545,10,$6.15 ,52,2,1,11,,,BlockProc,BlockList,branch,3,5,3,4,f,1,f,Keyboard,0,34,111603,517,f,909,112512,2800,match,2,2,TrialProc,TrialList2,Stimulus\CIRCLET.png,0,,,,1,1,1,,,
ConcurrentTasks,22,4,ConcurrentTasks-Data-22-4,no,60.039,pain,1,-1493553276,07-13-2018,7/13/2018 8:47:29 PM,16:47:29,no,no,1,,,,,,,,,RunProc,,,1,1,1,RunList,,,,1,90.9091,601.545,10,$6.15 ,52,2,1,11,,,BlockProc,BlockList,branch,3,5,3,5,j,1,j,Keyboard,0,34,114937,517,j,591,115528,3400,random,2,,TrialProc,TrialList2,Stimulus\CIRCLEB.png,2,,,,2,1,2,,,
ConcurrentTasks,22,4,ConcurrentTasks-Data-22-4,no,60.039,pain,1,-1493553276,07-13-2018,7/13/2018 8:47:29 PM,16:47:29,no,no,1,,,,,,,,,RunProc,,,1,1,1,RunList,,,,1,90.9091,601.545,10,$6.15 ,52,2,1,11,,,BlockProc,BlockList,branch,3,5,3,6,j,1,j,Keyboard,0,34,118871,517,j,769,119640,3000,random,2,,TrialProc,TrialList2,Stimulus\CIRCLET.png,0,,,,2,1,3,,,
ConcurrentTasks,22,4,ConcurrentTasks-Data-22-4,no,60.039,pain,1,-1493553276,07-13-2018,7/13/2018 8:47:29 PM,16:47:29,no,no,1,,,,,,,,,RunProc,,,1,1,1,RunList,,,,1,90.9091,601.545,10,$6.15 ,52,2,1,11,,,BlockProc,BlockList,branch,3,5,3,7,j,0,j,Keyboard,0,34,122405,517,f,795,123200,2800,random,2,,TrialProc,TrialList2,Stimulus\CIRCLEE.png,4,,,,2,1,4,,,
ConcurrentTasks,22,4,ConcurrentTasks-Data-22-4,no,60.039,pain,1,-1493553276,07-13-2018,7/13/2018 8:47:29 PM,16:47:29,no,no,1,,,,,,,,,RunProc,,,1,1,1,RunList,,,,1,90.9091,601.545,10,$6.15 ,52,2,1,11,,,BlockProc,BlockList,branch,3,5,3,8,f,1,f,Keyboard,0,34,125739,517,f,573,126312,3400,match,2,,TrialProc,TrialList2,Stimulus\CIRCLET.png,0,,,,1,1,5,,,
ConcurrentTasks,22,4,ConcurrentTasks-Data-22-4,no,60.039,pain,1,-1493553276,07-13-2018,7/13/2018 8:47:29 PM,16:47:29,no,no,1,,,,,,,,,RunProc,,,1,1,1,RunList,,,,1,90.9091,601.545,10,$6.15 ,52,2,1,11,,,BlockProc,BlockList,branch,3,5,3,9,f,1,f,Keyboard,0,34,129673,517,f,511,130184,3000,match,3,3,TrialProc,TrialList3,Stimulus\SQUAREE.png,4,,,,,,,1,1,1
ConcurrentTasks,22,4,ConcurrentTasks-Data-22-4,no,60.039,pain,1,-1493553276,07-13-2018,7/13/2018 8:47:29 PM,16:47:29,no,no,1,,,,,,,,,RunProc,,,1,1,1,RunList,,,,1,90.9091,601.545,10,$6.15 ,52,2,1,11,,,BlockProc,BlockList,branch,3,5,3,10,f,1,f,Keyboard,0,34,133207,517,f,473,133680,2800,match,3,,TrialProc,TrialList3,Stimulus\SQUARET.png,0,,,,,,,1,1,2
ConcurrentTasks,22,4,ConcurrentTasks-Data-22-4,no,60.039,pain,1,-1493553276,07-13-2018,7/13/2018 8:47:29 PM,16:47:29,no,no,1,,,,,,,,,RunProc,,,1,1,1,RunList,,,,1,90.9091,601.545,10,$6.15 ,52,2,1,11,,,BlockProc,BlockList,branch,3,5,3,11,f,1,f,Keyboard,0,34,136541,516,f,443,136984,3000,match,3,,TrialProc,TrialList3,Stimulus\SQUAREA.png,1,,,,,,,1,1,3
ConcurrentTasks,22,4,ConcurrentTasks-Data-22-4,no,60.039,pain,1,-1493553276,07-13-2018,7/13/2018 8:47:29 PM,16:47:29,no,no,1,,,,,,,,,RunProc,,,1,1,1,RunList,,,,2,100,594.3,10,$6.20 ,11,2,2,10,,,BlockProc,BlockList,branch,4,4,2,1,f,1,f,Keyboard,0,34,143075,517,f,605,143680,3400,match,1,1,TrialProc,TrialList1,Stimulus\SQUARET.png,0,1,1,4,,,,,,
ConcurrentTasks,22,4,ConcurrentTasks-Data-22-4,no,60.039,pain,1,-1493553276,07-13-2018,7/13/2018 8:47:29 PM,16:47:29,no,no,1,,,,,,,,,RunProc,,,1,1,1,RunList,,,,2,100,594.3,10,$6.20 ,11,2,2,10,,,BlockProc,BlockList,branch,4,4,2,2,f,1,f,Keyboard,0,34,147009,517,f,479,147488,2600,match,1,,TrialProc,TrialList1,Stimulus\SQUAREA.png,1,1,1,5,,,,,,
ConcurrentTasks,22,4,ConcurrentTasks-Data-22-4,no,60.039,pain,1,-1493553276,07-13-2018,7/13/2018 8:47:29 PM,16:47:29,no,no,1,,,,,,,,,RunProc,,,1,1,1,RunList,,,,2,100,594.3,10,$6.20 ,11,2,2,10,,,BlockProc,BlockList,branch,4,4,2,3,f,1,f,Keyboard,0,34,150143,517,f,633,150776,3000,match,1,,TrialProc,TrialList1,Stimulus\SQUAREB.png,2,1,1,6,,,,,,
ConcurrentTasks,22,4,ConcurrentTasks-Data-22-4,no,60.039,pain,1,-1493553276,07-13-2018,7/13/2018 8:47:29 PM,16:47:29,no,no,1,,,,,,,,,RunProc,,,1,1,1,RunList,,,,2,100,594.3,10,$6.20 ,11,2,2,10,,,BlockProc,BlockList,branch,4,4,2,4,f,1,f,Keyboard,0,34,153677,517,f,427,154104,3200,match,1,,TrialProc,TrialList1,Stimulus\SQUAREL.png,3,1,1,7,,,,,,
ConcurrentTasks,22,4,ConcurrentTasks-Data-22-4,no,60.039,pain,1,-1493553276,07-13-2018,7/13/2018 8:47:29 PM,16:47:29,no,no,1,,,,,,,,,RunProc,,,1,1,1,RunList,,,,2,100,594.3,10,$6.20 ,11,2,2,10,,,BlockProc,BlockList,branch,4,4,2,5,f,1,f,Keyboard,0,34,157411,516,f,797,158208,3200,match,2,2,TrialProc,TrialList2,Stimulus\CIRCLET.png,0,,,,1,1,6,,,
ConcurrentTasks,22,4,ConcurrentTasks-Data-22-4,no,60.039,pain,1,-1493553276,07-13-2018,7/13/2018 8:47:29 PM,16:47:29,no,no,1,,,,,,,,,RunProc,,,1,1,1,RunList,,,,2,100,594.3,10,$6.20 ,11,2,2,10,,,BlockProc,BlockList,branch,4,4,2,6,j,1,j,Keyboard,0,34,161145,516,j,631,161776,3400,random,2,,TrialProc,TrialList2,Stimulus\CIRCLEB.png,2,,,,2,1,7,,,
ConcurrentTasks,22,4,ConcurrentTasks-Data-22-4,no,60.039,pain,1,-1493553276,07-13-2018,7/13/2018 8:47:29 PM,16:47:29,no,no,1,,,,,,,,,RunProc,,,1,1,1,RunList,,,,2,100,594.3,10,$6.20 ,11,2,2,10,,,BlockProc,BlockList,branch,4,4,2,7,j,1,j,Keyboard,0,34,165079,516,j,545,165624,2800,random,2,,TrialProc,TrialList2,Stimulus\CIRCLEE.png,4,,,,2,1,8,,,
ConcurrentTasks,22,4,ConcurrentTasks-Data-22-4,no,60.039,pain,1,-1493553276,07-13-2018,7/13/2018 8:47:29 PM,16:47:29,no,no,1,,,,,,,,,RunProc,,,1,1,1,RunList,,,,2,100,594.3,10,$6.20 ,11,2,2,10,,,BlockProc,BlockList,branch,4,4,2,8,f,1,f,Keyboard,0,33,168412,517,f,716,169128,3400,match,2,,TrialProc,TrialList2,Stimulus\CIRCLET.png,0,,,,1,1,9,,,
ConcurrentTasks,22,4,ConcurrentTasks-Data-22-4,no,60.039,pain,1,-1493553276,07-13-2018,7/13/2018 8:47:29 PM,16:47:29,no,no,1,,,,,,,,,RunProc,,,1,1,1,RunList,,,,2,100,594.3,10,$6.20 ,11,2,2,10,,,BlockProc,BlockList,branch,4,4,2,9,j,1,j,Keyboard,0,18,172330,517,j,566,172896,2800,random,3,3,TrialProc,TrialList3,Stimulus\SQUARET.png,0,,,,,,,2,1,4
ConcurrentTasks,22,4,ConcurrentTasks-Data-22-4,no,60.039,pain,1,-1493553276,07-13-2018,7/13/2018 8:47:29 PM,16:47:29,no,no,1,,,,,,,,,RunProc,,,1,1,1,RunList,,,,2,100,594.3,10,$6.20 ,11,2,2,10,,,BlockProc,BlockList,branch,4,4,2,10,j,1,j,Keyboard,0,34,175664,516,j,544,176208,3200,random,3,,TrialProc,TrialList3,Stimulus\SQUAREB.png,2,,,,,,,2,1,5
ConcurrentTasks,22,4,ConcurrentTasks-Data-22-4,no,60.039,pain,1,-1493553276,07-13-2018,7/13/2018 8:47:29 PM,16:47:29,no,no,1,,,,,,,,,RunProc,,,1,1,1,RunList,,,,3,100,601.444,9,$6.15 ,1,2,3,9,,,BlockProc,BlockList,branch,3,3,3,1,j,1,j,Keyboard,0,34,182398,517,j,786,183184,3000,random,1,1,TrialProc,TrialList1,Stimulus\SQUAREL.png,3,2,1,8,,,,,,
ConcurrentTasks,22,4,ConcurrentTasks-Data-22-4,no,60.039,pain,1,-1493553276,07-13-2018,7/13/2018 8:47:29 PM,16:47:29,no,no,1,,,,,,,,,RunProc,,,1,1,1,RunList,,,,3,100,601.444,9,$6.15 ,1,2,3,9,,,BlockProc,BlockList,branch,3,3,3,2,j,1,j,Keyboard,0,34,185932,517,j,548,186480,2800,random,1,,TrialProc,TrialList1,Stimulus\SQUAREA.png,1,2,1,9,,,,,,
ConcurrentTasks,22,4,ConcurrentTasks-Data-22-4,no,60.039,pain,1,-1493553276,07-13-2018,7/13/2018 8:47:29 PM,16:47:29,no,no,1,,,,,,,,,RunProc,,,1,1,1,RunList,,,,3,100,601.444,9,$6.15 ,1,2,3,9,,,BlockProc,BlockList,branch,3,3,3,3,j,1,j,Keyboard,0,34,189266,517,j,638,189904,3000,random,1,,TrialProc,TrialList1,Stimulus\SQUARET.png,0,2,1,10,,,,,,
ConcurrentTasks,22,4,ConcurrentTasks-Data-22-4,no,60.039,pain,1,-1493553276,07-13-2018,7/13/2018 8:47:29 PM,16:47:29,no,no,1,,,,,,,,,RunProc,,,1,1,1,RunList,,,,3,100,601.444,9,$6.15 ,1,2,3,9,,,BlockProc,BlockList,branch,3,3,3,4,f,1,f,Keyboard,0,34,192800,516,f,680,193480,3200,match,2,2,TrialProc,TrialList2,Stimulus\CIRCLET.png,0,,,,1,1,10,,,
ConcurrentTasks,22,4,ConcurrentTasks-Data-22-4,no,60.039,pain,1,-1493553276,07-13-2018,7/13/2018 8:47:29 PM,16:47:29,no,no,1,,,,,,,,,RunProc,,,1,1,1,RunList,,,,3,100,601.444,9,$6.15 ,1,2,3,9,,,BlockProc,BlockList,branch,3,3,3,5,j,1,j,Keyboard,0,34,196534,516,j,610,197144,3000,random,2,,TrialProc,TrialList2,Stimulus\CIRCLEL.png,3,,,,2,1,11,,,
ConcurrentTasks,22,4,ConcurrentTasks-Data-22-4,no,60.039,pain,1,-1493553276,07-13-2018,7/13/2018 8:47:29 PM,16:47:29,no,no,1,,,,,,,,,RunProc,,,1,1,1,RunList,,,,3,100,601.444,9,$6.15 ,1,2,3,9,,,BlockProc,BlockList,branch,3,3,3,6,f,1,f,Keyboard,0,34,200068,516,f,500,200568,2600,match,2,,TrialProc,TrialList2,Stimulus\CIRCLEE.png,4,,,,1,1,12,,,
ConcurrentTasks,22,4,ConcurrentTasks-Data-22-4,no,60.039,pain,1,-1493553276,07-13-2018,7/13/2018 8:47:29 PM,16:47:29,no,no,1,,,,,,,,,RunProc,,,1,1,1,RunList,,,,3,100,601.444,9,$6.15 ,1,2,3,9,,,BlockProc,BlockList,branch,3,3,3,7,f,1,f,Keyboard,0,33,203201,517,f,647,203848,3400,match,3,3,TrialProc,TrialList3,Stimulus\SQUAREA.png,1,,,,,,,1,1,6
ConcurrentTasks,22,4,ConcurrentTasks-Data-22-4,no,60.039,pain,1,-1493553276,07-13-2018,7/13/2018 8:47:29 PM,16:47:29,no,no,1,,,,,,,,,RunProc,,,1,1,1,RunList,,,,3,100,601.444,9,$6.15 ,1,2,3,9,,,BlockProc,BlockList,branch,3,3,3,8,j,1,j,Keyboard,0,18,207119,516,j,513,207632,3200,random,3,,TrialProc,TrialList3,Stimulus\SQUAREE.png,4,,,,,,,2,1,7
ConcurrentTasks,22,4,ConcurrentTasks-Data-22-4,no,60.039,pain,1,-1493553276,07-13-2018,7/13/2018 8:47:29 PM,16:47:29,no,no,1,,,,,,,,,RunProc,,,1,1,1,RunList,,,,3,100,601.444,9,$6.15 ,1,2,3,9,,,BlockProc,BlockList,branch,3,3,3,9,j,1,j,Keyboard,0,34,210853,516,j,491,211344,3200,random,3,,TrialProc,TrialList3,Stimulus\SQUAREB.png,2,,,,,,,2,1,8
ConcurrentTasks,22,4,ConcurrentTasks-Data-22-4,no,60.039,pain,1,-1493553276,07-13-2018,7/13/2018 8:47:29 PM,16:47:29,no,no,1,,,,,,,,,RunProc,,,1,1,1,RunList,,,,4,100,589.7,10,$7.15 ,54,2,4,10,,,BlockProc,BlockList,switch,4,3,3,1,j,1,j,Keyboard,0,34,217587,517,j,541,218128,3400,random,1,1,TrialProc,TrialList1,Stimulus\SQUAREA.png,1,2,1,11,,,,,,
ConcurrentTasks,22,4,ConcurrentTasks-Data-22-4,no,60.039,pain,1,-1493553276,07-13-2018,7/13/2018 8:47:29 PM,16:47:29,no,no,1,,,,,,,,,RunProc,,,1,1,1,RunList,,,,4,100,589.7,10,$7.15 ,54,2,4,10,,,BlockProc,BlockList,switch,4,3,3,2,j,1,j,Keyboard,0,34,221521,517,j,735,222256,3000,random,1,,TrialProc,TrialList1,Stimulus\SQUARET.png,0,2,1,12,,,,,,
ConcurrentTasks,22,4,ConcurrentTasks-Data-22-4,no,60.039,pain,1,-1493553276,07-13-2018,7/13/2018 8:47:29 PM,16:47:29,no,no,1,,,,,,,,,RunProc,,,1,1,1,RunList,,,,4,100,589.7,10,$7.15 ,54,2,4,10,,,BlockProc,BlockList,switch,4,3,3,3,j,1,j,Keyboard,0,34,225055,517,j,505,225560,3200,random,1,,TrialProc,TrialList1,Stimulus\SQUAREL.png,3,2,1,13,,,,,,
ConcurrentTasks,22,4,ConcurrentTasks-Data-22-4,no,60.039,pain,1,-1493553276,07-13-2018,7/13/2018 8:47:29 PM,16:47:29,no,no,1,,,,,,,,,RunProc,,,1,1,1,RunList,,,,4,100,589.7,10,$7.15 ,54,2,4,10,,,BlockProc,BlockList,switch,4,3,3,4,f,1,f,Keyboard,0,34,228789,516,f,507,229296,3200,match,1,,TrialProc,TrialList1,Stimulus\SQUAREE.png,4,1,1,14,,,,,,
ConcurrentTasks,22,4,ConcurrentTasks-Data-22-4,no,60.039,pain,1,-1493553276,07-13-2018,7/13/2018 8:47:29 PM,16:47:29,no,no,1,,,,,,,,,RunProc,,,1,1,1,RunList,,,,4,100,589.7,10,$7.15 ,54,2,4,10,,,BlockProc,BlockList,switch,4,3,3,5,f,1,f,Keyboard,0,34,232523,516,f,661,233184,3000,match,2,2,TrialProc,TrialList2,Stimulus\DIAMONDT.png,0,,,,1,1,13,,,
ConcurrentTasks,22,4,ConcurrentTasks-Data-22-4,no,60.039,pain,1,-1493553276,07-13-2018,7/13/2018 8:47:29 PM,16:47:29,no,no,1,,,,,,,,,RunProc,,,1,1,1,RunList,,,,4,100,589.7,10,$7.15 ,54,2,4,10,,,BlockProc,BlockList,switch,4,3,3,6,j,1,j,Keyboard,0,34,236057,516,j,679,236736,3000,random,2,,TrialProc,TrialList2,Stimulus\DIAMONDL.png,3,,,,2,1,14,,,
ConcurrentTasks,22,4,ConcurrentTasks-Data-22-4,no,60.039,pain,1,-1493553276,07-13-2018,7/13/2018 8:47:29 PM,16:47:29,no,no,1,,,,,,,,,RunProc,,,1,1,1,RunList,,,,4,100,589.7,10,$7.15 ,54,2,4,10,,,BlockProc,BlockList,switch,4,3,3,7,j,1,j,Keyboard,0,33,239590,517,j,618,240208,3200,random,2,,TrialProc,TrialList2,Stimulus\DIAMONDT.png,0,,,,2,1,15,,,
ConcurrentTasks,22,4,ConcurrentTasks-Data-22-4,no,60.039,pain,1,-1493553276,07-13-2018,7/13/2018 8:47:29 PM,16:47:29,no,no,1,,,,,,,,,RunProc,,,1,1,1,RunList,,,,4,100,589.7,10,$7.15 ,54,2,4,10,,,BlockProc,BlockList,switch,4,3,3,8,f,1,f,Keyboard,0,18,243308,516,f,652,243960,2600,match,3,3,TrialProc,TrialList3,Stimulus\SQUARET.png,0,,,,,,,1,1,9
ConcurrentTasks,22,4,ConcurrentTasks-Data-22-4,no,60.039,pain,1,-1493553276,07-13-2018,7/13/2018 8:47:29 PM,16:47:29,no,no,1,,,,,,,,,RunProc,,,1,1,1,RunList,,,,4,100,589.7,10,$7.15 ,54,2,4,10,,,BlockProc,BlockList,switch,4,3,3,9,j,1,j,Keyboard,0,34,246442,516,j,566,247008,2600,random,3,,TrialProc,TrialList3,Stimulus\SQUAREB.png,2,,,,,,,2,1,10
ConcurrentTasks,22,4,ConcurrentTasks-Data-22-4,no,60.039,pain,1,-1493553276,07-13-2018,7/13/2018 8:47:29 PM,16:47:29,no,no,1,,,,,,,,,RunProc,,,1,1,1,RunList,,,,4,100,589.7,10,$7.15 ,54,2,4,10,,,BlockProc,BlockList,switch,4,3,3,10,f,1,f,Keyboard,0,33,249575,517,f,433,250008,3400,match,3,,TrialProc,TrialList3,Stimulus\SQUAREL.png,3,,,,,,,1,1,11
ConcurrentTasks,22,4,ConcurrentTasks-Data-22-4,no,60.039,pain,1,-1493553276,07-13-2018,7/13/2018 8:47:29 PM,16:47:29,no,no,1,,,,,,,,,RunProc,,,1,1,1,RunList,,,,5,90,494.4,9,$4.20 ,40,2,5,10,,,BlockProc,BlockList,switch,4,4,2,1,f,1,f,Keyboard,0,35,256510,517,f,426,256936,3000,match,1,1,TrialProc,TrialList1,Stimulus\SQUARET.png,0,1,1,15,,,,,,
ConcurrentTasks,22,4,ConcurrentTasks-Data-22-4,no,60.039,pain,1,-1493553276,07-13-2018,7/13/2018 8:47:29 PM,16:47:29,no,no,1,,,,,,,,,RunProc,,,1,1,1,RunList,,,,5,90,494.4,9,$4.20 ,40,2,5,10,,,BlockProc,BlockList,switch,4,4,2,2,j,1,j,Keyboard,0,34,260044,516,j,619,260663,2600,random,1,,TrialProc,TrialList1,Stimulus\SQUAREB.png,2,2,1,16,,,,,,
ConcurrentTasks,22,4,ConcurrentTasks-Data-22-4,no,60.039,pain,1,-1493553276,07-13-2018,7/13/2018 8:47:29 PM,16:47:29,no,no,1,,,,,,,,,RunProc,,,1,1,1,RunList,,,,5,90,494.4,9,$4.20 ,40,2,5,10,,,BlockProc,BlockList,switch,4,4,2,3,f,1,f,Keyboard,0,34,263178,516,f,470,263648,3000,match,1,,TrialProc,TrialList1,Stimulus\SQUAREL.png,3,1,1,17,,,,,,
ConcurrentTasks,22,4,ConcurrentTasks-Data-22-4,no,60.039,pain,1,-1493553276,07-13-2018,7/13/2018 8:47:29 PM,16:47:29,no,no,1,,,,,,,,,RunProc,,,1,1,1,RunList,,,,5,90,494.4,9,$4.20 ,40,2,5,10,,,BlockProc,BlockList,switch,4,4,2,4,f,1,f,Keyboard,0,33,266711,517,f,424,267135,3400,match,1,,TrialProc,TrialList1,Stimulus\SQUAREE.png,4,1,1,18,,,,,,
ConcurrentTasks,22,4,ConcurrentTasks-Data-22-4,no,60.039,pain,1,-1493553276,07-13-2018,7/13/2018 8:47:29 PM,16:47:29,no,no,1,,,,,,,,,RunProc,,,1,1,1,RunList,,,,5,90,494.4,9,$4.20 ,40,2,5,10,,,BlockProc,BlockList,switch,4,4,2,5,f,1,f,Keyboard,0,18,270629,517,f,498,271127,2600,match,2,2,TrialProc,TrialList2,Stimulus\DIAMONDT.png,0,,,,1,1,16,,,
ConcurrentTasks,22,4,ConcurrentTasks-Data-22-4,no,60.039,pain,1,-1493553276,07-13-2018,7/13/2018 8:47:29 PM,16:47:29,no,no,1,,,,,,,,,RunProc,,,1,1,1,RunList,,,,5,90,494.4,9,$4.20 ,40,2,5,10,,,BlockProc,BlockList,switch,4,4,2,6,j,1,j,Keyboard,0,34,273763,516,j,580,274343,3200,random,2,,TrialProc,TrialList2,Stimulus\DIAMONDL.png,3,,,,2,1,17,,,
ConcurrentTasks,22,4,ConcurrentTasks-Data-22-4,no,60.039,pain,1,-1493553276,07-13-2018,7/13/2018 8:47:29 PM,16:47:29,no,no,1,,,,,,,,,RunProc,,,1,1,1,RunList,,,,5,90,494.4,9,$4.20 ,40,2,5,10,,,BlockProc,BlockList,switch,4,4,2,7,f,1,f,Keyboard,0,34,277497,516,f,398,277895,3000,match,2,,TrialProc,TrialList2,Stimulus\DIAMONDE.png,4,,,,1,1,18,,,
ConcurrentTasks,22,4,ConcurrentTasks-Data-22-4,no,60.039,pain,1,-1493553276,07-13-2018,7/13/2018 8:47:29 PM,16:47:29,no,no,1,,,,,,,,,RunProc,,,1,1,1,RunList,,,,5,90,494.4,9,$4.20 ,40,2,5,10,,,BlockProc,BlockList,switch,4,4,2,8,f,1,f,Keyboard,0,33,281030,517,f,513,281543,2600,match,2,,TrialProc,TrialList2,Stimulus\DIAMONDT.png,0,,,,1,1,19,,,
ConcurrentTasks,22,4,ConcurrentTasks-Data-22-4,no,60.039,pain,1,-1493553276,07-13-2018,7/13/2018 8:47:29 PM,16:47:29,no,no,1,,,,,,,,,RunProc,,,1,1,1,RunList,,,,5,90,494.4,9,$4.20 ,40,2,5,10,,,BlockProc,BlockList,switch,4,4,2,9,f,0,f,Keyboard,0,18,284148,516,j,635,284783,3400,match,3,3,TrialProc,TrialList3,Stimulus\SQUARET.png,0,,,,,,,1,1,12
ConcurrentTasks,22,4,ConcurrentTasks-Data-22-4,no,60.039,pain,1,-1493553276,07-13-2018,7/13/2018 8:47:29 PM,16:47:29,no,no,1,,,,,,,,,RunProc,,,1,1,1,RunList,,,,5,90,494.4,9,$4.20 ,40,2,5,10,,,BlockProc,BlockList,switch,4,4,2,10,f,1,f,Keyboard,0,34,288082,516,f,381,288463,2800,match,3,,TrialProc,TrialList3,Stimulus\SQUAREA.png,1,,,,,,,1,1,13
ConcurrentTasks,22,4,ConcurrentTasks-Data-22-4,no,60.039,pain,1,-1493553276,07-13-2018,7/13/2018 8:47:29 PM,16:47:29,no,no,1,,,,,,,,,RunProc,,,1,1,1,RunList,,,,6,100,560.75,12,$7.25 ,59,2,6,12,,,BlockProc,BlockList,branch,5,5,2,1,f,1,f,Keyboard,0,34,294416,517,f,479,294895,2600,match,1,1,TrialProc,TrialList1,Stimulus\SQUARET.png,0,1,1,19,,,,,,
ConcurrentTasks,22,4,ConcurrentTasks-Data-22-4,no,60.039,pain,1,-1493553276,07-13-2018,7/13/2018 8:47:29 PM,16:47:29,no,no,1,,,,,,,,,RunProc,,,1,1,1,RunList,,,,6,100,560.75,12,$7.25 ,59,2,6,12,,,BlockProc,BlockList,branch,5,5,2,2,j,1,j,Keyboard,0,34,297550,516,j,481,298031,2600,random,1,,TrialProc,TrialList1,Stimulus\SQUAREB.png,2,2,1,20,,,,,,
ConcurrentTasks,22,4,ConcurrentTasks-Data-22-4,no,60.039,pain,1,-1493553276,07-13-2018,7/13/2018 8:47:29 PM,16:47:29,no,no,1,,,,,,,,,RunProc,,,1,1,1,RunList,,,,6,100,560.75,12,$7.25 ,59,2,6,12,,,BlockProc,BlockList,branch,5,5,2,3,f,1,f,Keyboard,0,34,300684,516,f,531,301215,2800,match,1,,TrialProc,TrialList1,Stimulus\SQUAREL.png,3,1,1,21,,,,,,
ConcurrentTasks,22,4,ConcurrentTasks-Data-22-4,no,60.039,pain,1,-1493553276,07-13-2018,7/13/2018 8:47:29 PM,16:47:29,no,no,1,,,,,,,,,RunProc,,,1,1,1,RunList,,,,6,100,560.75,12,$7.25 ,59,2,6,12,,,BlockProc,BlockList,branch,5,5,2,4,j,1,j,Keyboard,0,33,304017,517,j,734,304751,2800,random,1,,TrialProc,TrialList1,Stimulus\SQUARET.png,0,2,1,22,,,,,,
ConcurrentTasks,22,4,ConcurrentTasks-Data-22-4,no,60.039,pain,1,-1493553276,07-13-2018,7/13/2018 8:47:29 PM,16:47:29,no,no,1,,,,,,,,,RunProc,,,1,1,1,RunList,,,,6,100,560.75,12,$7.25 ,59,2,6,12,,,BlockProc,BlockList,branch,5,5,2,5,j,1,j,Keyboard,0,34,307351,517,j,560,307911,3000,random,1,,TrialProc,TrialList1,Stimulus\SQUAREB.png,2,2,1,23,,,,,,
ConcurrentTasks,22,4,ConcurrentTasks-Data-22-4,no,60.039,pain,1,-1493553276,07-13-2018,7/13/2018 8:47:29 PM,16:47:29,no,no,1,,,,,,,,,RunProc,,,1,1,1,RunList,,,,6,100,560.75,12,$7.25 ,59,2,6,12,,,BlockProc,BlockList,branch,5,5,2,6,f,1,f,Keyboard,0,34,310885,517,f,802,311687,3000,match,2,2,TrialProc,TrialList2,Stimulus\CIRCLET.png,0,,,,1,1,20,,,
ConcurrentTasks,22,4,ConcurrentTasks-Data-22-4,no,60.039,pain,1,-1493553276,07-13-2018,7/13/2018 8:47:29 PM,16:47:29,no,no,1,,,,,,,,,RunProc,,,1,1,1,RunList,,,,6,100,560.75,12,$7.25 ,59,2,6,12,,,BlockProc,BlockList,branch,5,5,2,7,f,1,f,Keyboard,0,34,314419,517,f,436,314855,2600,match,2,,TrialProc,TrialList2,Stimulus\CIRCLEA.png,1,,,,1,1,21,,,
ConcurrentTasks,22,4,ConcurrentTasks-Data-22-4,no,60.039,pain,1,-1493553276,07-13-2018,7/13/2018 8:47:29 PM,16:47:29,no,no,1,,,,,,,,,RunProc,,,1,1,1,RunList,,,,6,100,560.75,12,$7.25 ,59,2,6,12,,,BlockProc,BlockList,branch,5,5,2,8,f,1,f,Keyboard,0,34,317553,517,f,438,317991,3000,match,2,,TrialProc,TrialList2,Stimulus\CIRCLEB.png,2,,,,1,1,22,,,
ConcurrentTasks,22,4,ConcurrentTasks-Data-22-4,no,60.039,pain,1,-1493553276,07-13-2018,7/13/2018 8:47:29 PM,16:47:29,no,no,1,,,,,,,,,RunProc,,,1,1,1,RunList,,,,6,100,560.75,12,$7.25 ,59,2,6,12,,,BlockProc,BlockList,branch,5,5,2,9,f,1,f,Keyboard,0,34,321087,517,f,568,321655,3400,match,2,,TrialProc,TrialList2,Stimulus\CIRCLEL.png,3,,,,1,1,23,,,
ConcurrentTasks,22,4,ConcurrentTasks-Data-22-4,no,60.039,pain,1,-1493553276,07-13-2018,7/13/2018 8:47:29 PM,16:47:29,no,no,1,,,,,,,,,RunProc,,,1,1,1,RunList,,,,6,100,560.75,12,$7.25 ,59,2,6,12,,,BlockProc,BlockList,branch,5,5,2,10,j,1,j,Keyboard,0,34,325021,517,j,674,325695,3200,random,2,,TrialProc,TrialList2,Stimulus\CIRCLEB.png,2,,,,2,1,24,,,
ConcurrentTasks,22,4,ConcurrentTasks-Data-22-4,no,60.039,pain,1,-1493553276,07-13-2018,7/13/2018 8:47:29 PM,16:47:29,no,no,1,,,,,,,,,RunProc,,,1,1,1,RunList,,,,6,100,560.75,12,$7.25 ,59,2,6,12,,,BlockProc,BlockList,branch,5,5,2,11,f,1,f,Keyboard,0,34,328755,516,f,412,329167,3400,match,3,3,TrialProc,TrialList3,Stimulus\SQUAREL.png,3,,,,,,,1,1,14
ConcurrentTasks,22,4,ConcurrentTasks-Data-22-4,no,60.039,pain,1,-1493553276,07-13-2018,7/13/2018 8:47:29 PM,16:47:29,no,no,1,,,,,,,,,RunProc,,,1,1,1,RunList,,,,6,100,560.75,12,$7.25 ,59,2,6,12,,,BlockProc,BlockList,branch,5,5,2,12,j,1,j,Keyboard,0,34,332689,516,j,614,333303,3200,random,3,,TrialProc,TrialList3,Stimulus\SQUAREB.png,2,,,,,,,2,1,15
ConcurrentTasks,22,4,ConcurrentTasks-Data-22-4,no,60.039,pain,1,-1493553276,07-13-2018,7/13/2018 8:47:29 PM,16:47:29,no,no,1,,,,,,,,,RunProc,,,1,1,1,RunList,,,,7,91.66667,590.917,11,$5.25 ,43,2,7,12,,,BlockProc,BlockList,switch,4,5,3,1,f,1,f,Keyboard,0,34,339423,517,f,544,339967,3400,match,1,1,TrialProc,TrialList1,Stimulus\SQUARET.png,0,1,1,24,,,,,,
ConcurrentTasks,22,4,ConcurrentTasks-Data-22-4,no,60.039,pain,1,-1493553276,07-13-2018,7/13/2018 8:47:29 PM,16:47:29,no,no,1,,,,,,,,,RunProc,,,1,1,1,RunList,,,,7,91.66667,590.917,11,$5.25 ,43,2,7,12,,,BlockProc,BlockList,switch,4,5,3,2,f,1,f,Keyboard,0,34,343357,517,f,554,343911,2600,match,1,,TrialProc,TrialList1,Stimulus\SQUAREA.png,1,1,1,25,,,,,,
ConcurrentTasks,22,4,ConcurrentTasks-Data-22-4,no,60.039,pain,1,-1493553276,07-13-2018,7/13/2018 8:47:29 PM,16:47:29,no,no,1,,,,,,,,,RunProc,,,1,1,1,RunList,,,,7,91.66667,590.917,11,$5.25 ,43,2,7,12,,,BlockProc,BlockList,switch,4,5,3,3,f,0,f,Keyboard,0,34,346491,517,j,748,347239,3400,match,1,,TrialProc,TrialList1,Stimulus\SQUAREB.png,2,1,1,26,,,,,,
ConcurrentTasks,22,4,ConcurrentTasks-Data-22-4,no,60.039,pain,1,-1493553276,07-13-2018,7/13/2018 8:47:29 PM,16:47:29,no,no,1,,,,,,,,,RunProc,,,1,1,1,RunList,,,,7,91.66667,590.917,11,$5.25 ,43,2,7,12,,,BlockProc,BlockList,switch,4,5,3,4,f,1,f,Keyboard,0,34,350425,517,f,398,350823,3200,match,1,,TrialProc,TrialList1,Stimulus\SQUAREL.png,3,1,1,27,,,,,,
ConcurrentTasks,22,4,ConcurrentTasks-Data-22-4,no,60.039,pain,1,-1493553276,07-13-2018,7/13/2018 8:47:29 PM,16:47:29,no,no,1,,,,,,,,,RunProc,,,1,1,1,RunList,,,,7,91.66667,590.917,11,$5.25 ,43,2,7,12,,,BlockProc,BlockList,switch,4,5,3,5,j,1,j,Keyboard,0,34,354159,516,j,744,354903,3200,random,2,2,TrialProc,TrialList2,Stimulus\DIAMONDA.png,1,,,,2,1,25,,,
ConcurrentTasks,22,4,ConcurrentTasks-Data-22-4,no,60.039,pain,1,-1493553276,07-13-2018,7/13/2018 8:47:29 PM,16:47:29,no,no,1,,,,,,,,,RunProc,,,1,1,1,RunList,,,,7,91.66667,590.917,11,$5.25 ,43,2,7,12,,,BlockProc,BlockList,switch,4,5,3,6,j,1,j,Keyboard,0,34,357893,516,j,594,358487,2800,random,2,,TrialProc,TrialList2,Stimulus\DIAMONDE.png,4,,,,2,1,26,,,
ConcurrentTasks,22,4,ConcurrentTasks-Data-22-4,no,60.039,pain,1,-1493553276,07-13-2018,7/13/2018 8:47:29 PM,16:47:29,no,no,1,,,,,,,,,RunProc,,,1,1,1,RunList,,,,7,91.66667,590.917,11,$5.25 ,43,2,7,12,,,BlockProc,BlockList,switch,4,5,3,7,f,1,f,Keyboard,0,34,361227,516,f,524,361751,3200,match,2,,TrialProc,TrialList2,Stimulus\DIAMONDT.png,0,,,,1,1,27,,,
ConcurrentTasks,22,4,ConcurrentTasks-Data-22-4,no,60.039,pain,1,-1493553276,07-13-2018,7/13/2018 8:47:29 PM,16:47:29,no,no,1,,,,,,,,,RunProc,,,1,1,1,RunList,,,,7,91.66667,590.917,11,$5.25 ,43,2,7,12,,,BlockProc,BlockList,switch,4,5,3,8,j,1,j,Keyboard,0,33,364960,517,j,535,365495,3000,random,2,,TrialProc,TrialList2,Stimulus\DIAMONDE.png,4,,,,2,1,28,,,
ConcurrentTasks,22,4,ConcurrentTasks-Data-22-4,no,60.039,pain,1,-1493553276,07-13-2018,7/13/2018 8:47:29 PM,16:47:29,no,no,1,,,,,,,,,RunProc,,,1,1,1,RunList,,,,7,91.66667,590.917,11,$5.25 ,43,2,7,12,,,BlockProc,BlockList,switch,4,5,3,9,j,1,j,Keyboard,0,18,368478,516,j,609,369087,3000,random,2,,TrialProc,TrialList2,Stimulus\DIAMONDL.png,3,,,,2,1,29,,,
ConcurrentTasks,22,4,ConcurrentTasks-Data-22-4,no,60.039,pain,1,-1493553276,07-13-2018,7/13/2018 8:47:29 PM,16:47:29,no,no,1,,,,,,,,,RunProc,,,1,1,1,RunList,,,,7,91.66667,590.917,11,$5.25 ,43,2,7,12,,,BlockProc,BlockList,switch,4,5,3,10,j,1,j,Keyboard,0,34,372012,516,j,699,372711,2600,random,3,3,TrialProc,TrialList3,Stimulus\SQUAREB.png,2,,,,,,,2,1,16
ConcurrentTasks,22,4,ConcurrentTasks-Data-22-4,no,60.039,pain,1,-1493553276,07-13-2018,7/13/2018 8:47:29 PM,16:47:29,no,no,1,,,,,,,,,RunProc,,,1,1,1,RunList,,,,7,91.66667,590.917,11,$5.25 ,43,2,7,12,,,BlockProc,BlockList,switch,4,5,3,11,j,1,j,Keyboard,0,33,375145,517,j,582,375727,3200,random,3,,TrialProc,TrialList3,Stimulus\SQUARET.png,0,,,,,,,2,1,17
ConcurrentTasks,22,4,ConcurrentTasks-Data-22-4,no,60.039,pain,1,-1493553276,07-13-2018,7/13/2018 8:47:29 PM,16:47:29,no,no,1,,,,,,,,,RunProc,,,1,1,1,RunList,,,,7,91.66667,590.917,11,$5.25 ,43,2,7,12,,,BlockProc,BlockList,switch,4,5,3,12,j,1,j,Keyboard,0,34,378879,517,j,560,379439,3000,random,3,,TrialProc,TrialList3,Stimulus\SQUAREL.png,3,,,,,,,2,1,18
ConcurrentTasks,22,4,ConcurrentTasks-Data-22-4,no,60.039,pain,1,-1493553276,07-13-2018,7/13/2018 8:47:29 PM,16:47:29,no,no,1,,,,,,,,,RunProc,,,1,1,1,RunList,,,,8,88.88889,617.889,8,$4.15 ,22,2,8,9,,,BlockProc,BlockList,branch,3,3,3,1,j,1,j,Keyboard,0,35,385414,516,j,401,385815,2600,random,1,1,TrialProc,TrialList1,Stimulus\SQUAREE.png,4,2,1,28,,,,,,
ConcurrentTasks,22,4,ConcurrentTasks-Data-22-4,no,60.039,pain,1,-1493553276,07-13-2018,7/13/2018 8:47:29 PM,16:47:29,no,no,1,,,,,,,,,RunProc,,,1,1,1,RunList,,,,8,88.88889,617.889,8,$4.15 ,22,2,8,9,,,BlockProc,BlockList,branch,3,3,3,2,j,1,j,Keyboard,0,34,388548,516,j,515,389063,3200,random,1,,TrialProc,TrialList1,Stimulus\SQUAREB.png,2,2,1,29,,,,,,
ConcurrentTasks,22,4,ConcurrentTasks-Data-22-4,no,60.039,pain,1,-1493553276,07-13-2018,7/13/2018 8:47:29 PM,16:47:29,no,no,1,,,,,,,,,RunProc,,,1,1,1,RunList,,,,8,88.88889,617.889,8,$4.15 ,22,2,8,9,,,BlockProc,BlockList,branch,3,3,3,3,f,1,f,Keyboard,0,33,392281,517,f,494,392775,2600,match,1,,TrialProc,TrialList1,Stimulus\SQUAREL.png,3,1,1,30,,,,,,
ConcurrentTasks,22,4,ConcurrentTasks-Data-22-4,no,60.039,pain,1,-1493553276,07-13-2018,7/13/2018 8:47:29 PM,16:47:29,no,no,1,,,,,,,,,RunProc,,,1,1,1,RunList,,,,8,88.88889,617.889,8,$4.15 ,22,2,8,9,,,BlockProc,BlockList,branch,3,3,3,4,j,1,j,Keyboard,0,34,395415,517,j,1056,396471,2600,random,2,2,TrialProc,TrialList2,Stimulus\CIRCLEL.png,3,,,,2,1,30,,,
ConcurrentTasks,22,4,ConcurrentTasks-Data-22-4,no,60.039,pain,1,-1493553276,07-13-2018,7/13/2018 8:47:29 PM,16:47:29,no,no,1,,,,,,,,,RunProc,,,1,1,1,RunList,,,,8,88.88889,617.889,8,$4.15 ,22,2,8,9,,,BlockProc,BlockList,branch,3,3,3,5,f,1,f,Keyboard,0,34,398549,517,f,738,399287,2600,match,2,,TrialProc,TrialList2,Stimulus\CIRCLEE.png,4,,,,1,1,31,,,
ConcurrentTasks,22,4,ConcurrentTasks-Data-22-4,no,60.039,pain,1,-1493553276,07-13-2018,7/13/2018 8:47:29 PM,16:47:29,no,no,1,,,,,,,,,RunProc,,,1,1,1,RunList,,,,8,88.88889,617.889,8,$4.15 ,22,2,8,9,,,BlockProc,BlockList,branch,3,3,3,6,f,1,f,Keyboard,0,34,401683,517,f,508,402191,2800,match,2,,TrialProc,TrialList2,Stimulus\CIRCLET.png,0,,,,1,1,32,,,
ConcurrentTasks,22,4,ConcurrentTasks-Data-22-4,no,60.039,pain,1,-1493553276,07-13-2018,7/13/2018 8:47:29 PM,16:47:29,no,no,1,,,,,,,,,RunProc,,,1,1,1,RunList,,,,8,88.88889,617.889,8,$4.15 ,22,2,8,9,,,BlockProc,BlockList,branch,3,3,3,7,j,1,j,Keyboard,0,34,405017,517,j,982,405999,2800,random,3,3,TrialProc,TrialList3,Stimulus\SQUAREA.png,1,,,,,,,2,1,19
ConcurrentTasks,22,4,ConcurrentTasks-Data-22-4,no,60.039,pain,1,-1493553276,07-13-2018,7/13/2018 8:47:29 PM,16:47:29,no,no,1,,,,,,,,,RunProc,,,1,1,1,RunList,,,,8,88.88889,617.889,8,$4.15 ,22,2,8,9,,,BlockProc,BlockList,branch,3,3,3,8,f,1,f,Keyboard,0,34,408351,516,f,424,408775,3200,match,3,,TrialProc,TrialList3,Stimulus\SQUAREB.png,2,,,,,,,1,1,20
ConcurrentTasks,22,4,ConcurrentTasks-Data-22-4,no,60.039,pain,1,-1493553276,07-13-2018,7/13/2018 8:47:29 PM,16:47:29,no,no,1,,,,,,,,,RunProc,,,1,1,1,RunList,,,,8,88.88889,617.889,8,$4.15 ,22,2,8,9,,,BlockProc,BlockList,branch,3,3,3,9,f,0,f,Keyboard,0,17,412068,517,j,443,412511,2800,match,3,,TrialProc,TrialList3,Stimulus\SQUAREL.png,3,,,,,,,1,1,21
ConcurrentTasks,22,4,ConcurrentTasks-Data-22-4,no,60.039,pain,1,-1493553276,07-13-2018,7/13/2018 8:47:29 PM,16:47:29,no,no,2,95.18072,87.5,580.663,95.18072,580.663,8,TRUE,Keyboard,RestProc,Keyboard,$46.50 ,2,1,2,RunList,8,$46.50 ,10,,,,,,,,,,,,,,,,,,,,,,,,,,,,,,,,,,,,,,,,,,,,,,
ConcurrentTasks,22,4,ConcurrentTasks-Data-22-4,no,60.039,pain,1,-1493553276,07-13-2018,7/13/2018 8:47:29 PM,16:47:29,no,no,3,,,,,,,,,RunProc,,,1,2,3,RunList,,,,1,100,619,8,$5.15 ,25,2,9,8,,,BlockProc,BlockList,branch,3,3,2,1,j,1,j,Keyboard,0,17,495631,517,j,632,496263,3000,random,1,1,TrialProc,TrialList1,Stimulus\SQUAREA.png,1,2,1,31,,,,,,
ConcurrentTasks,22,4,ConcurrentTasks-Data-22-4,no,60.039,pain,1,-1493553276,07-13-2018,7/13/2018 8:47:29 PM,16:47:29,no,no,3,,,,,,,,,RunProc,,,1,2,3,RunList,,,,1,100,619,8,$5.15 ,25,2,9,8,,,BlockProc,BlockList,branch,3,3,2,2,f,1,f,Keyboard,0,34,499165,517,f,466,499631,3400,match,1,,TrialProc,TrialList1,Stimulus\SQUAREB.png,2,1,1,32,,,,,,
ConcurrentTasks,22,4,ConcurrentTasks-Data-22-4,no,60.039,pain,1,-1493553276,07-13-2018,7/13/2018 8:47:29 PM,16:47:29,no,no,3,,,,,,,,,RunProc,,,1,2,3,RunList,,,,1,100,619,8,$5.15 ,25,2,9,8,,,BlockProc,BlockList,branch,3,3,2,3,j,1,j,Keyboard,0,34,503099,517,j,604,503703,2800,random,1,,TrialProc,TrialList1,Stimulus\SQUAREA.png,1,2,1,33,,,,,,
ConcurrentTasks,22,4,ConcurrentTasks-Data-22-4,no,60.039,pain,1,-1493553276,07-13-2018,7/13/2018 8:47:29 PM,16:47:29,no,no,3,,,,,,,,,RunProc,,,1,2,3,RunList,,,,1,100,619,8,$5.15 ,25,2,9,8,,,BlockProc,BlockList,branch,3,3,2,4,f,1,f,Keyboard,0,34,506433,517,f,854,507287,2800,match,2,2,TrialProc,TrialList2,Stimulus\CIRCLET.png,0,,,,1,1,33,,,
ConcurrentTasks,22,4,ConcurrentTasks-Data-22-4,no,60.039,pain,1,-1493553276,07-13-2018,7/13/2018 8:47:29 PM,16:47:29,no,no,3,,,,,,,,,RunProc,,,1,2,3,RunList,,,,1,100,619,8,$5.15 ,25,2,9,8,,,BlockProc,BlockList,branch,3,3,2,5,f,1,f,Keyboard,0,34,509767,517,f,536,510303,2600,match,2,,TrialProc,TrialList2,Stimulus\CIRCLEA.png,1,,,,1,1,34,,,
ConcurrentTasks,22,4,ConcurrentTasks-Data-22-4,no,60.039,pain,1,-1493553276,07-13-2018,7/13/2018 8:47:29 PM,16:47:29,no,no,3,,,,,,,,,RunProc,,,1,2,3,RunList,,,,1,100,619,8,$5.15 ,25,2,9,8,,,BlockProc,BlockList,branch,3,3,2,6,f,1,f,Keyboard,0,34,512901,516,f,482,513383,2600,match,2,,TrialProc,TrialList2,Stimulus\CIRCLEB.png,2,,,,1,1,35,,,
ConcurrentTasks,22,4,ConcurrentTasks-Data-22-4,no,60.039,pain,1,-1493553276,07-13-2018,7/13/2018 8:47:29 PM,16:47:29,no,no,3,,,,,,,,,RunProc,,,1,2,3,RunList,,,,1,100,619,8,$5.15 ,25,2,9,8,,,BlockProc,BlockList,branch,3,3,2,7,f,1,f,Keyboard,0,34,516035,516,f,724,516759,3400,match,3,3,TrialProc,TrialList3,Stimulus\SQUAREB.png,2,,,,,,,1,1,22
ConcurrentTasks,22,4,ConcurrentTasks-Data-22-4,no,60.039,pain,1,-1493553276,07-13-2018,7/13/2018 8:47:29 PM,16:47:29,no,no,3,,,,,,,,,RunProc,,,1,2,3,RunList,,,,1,100,619,8,$5.15 ,25,2,9,8,,,BlockProc,BlockList,branch,3,3,2,8,f,1,f,Keyboard,0,34,519969,516,f,654,520623,2600,match,3,,TrialProc,TrialList3,Stimulus\SQUAREL.png,3,,,,,,,1,1,23
ConcurrentTasks,22,4,ConcurrentTasks-Data-22-4,no,60.039,pain,1,-1493553276,07-13-2018,7/13/2018 8:47:29 PM,16:47:29,no,no,3,,,,,,,,,RunProc,,,1,2,3,RunList,,,,2,87.5,652.5,7,$3.15 ,42,2,10,8,,,BlockProc,BlockList,branch,3,3,2,1,f,1,f,Keyboard,0,34,526103,517,f,576,526679,2800,match,1,1,TrialProc,TrialList1,Stimulus\SQUARET.png,0,1,1,34,,,,,,
ConcurrentTasks,22,4,ConcurrentTasks-Data-22-4,no,60.039,pain,1,-1493553276,07-13-2018,7/13/2018 8:47:29 PM,16:47:29,no,no,3,,,,,,,,,RunProc,,,1,2,3,RunList,,,,2,87.5,652.5,7,$3.15 ,42,2,10,8,,,BlockProc,BlockList,branch,3,3,2,2,j,1,j,Keyboard,0,34,529437,516,j,658,530095,3200,random,1,,TrialProc,TrialList1,Stimulus\SQUAREE.png,4,2,1,35,,,,,,
ConcurrentTasks,22,4,ConcurrentTasks-Data-22-4,no,60.039,pain,1,-1493553276,07-13-2018,7/13/2018 8:47:29 PM,16:47:29,no,no,3,,,,,,,,,RunProc,,,1,2,3,RunList,,,,2,87.5,652.5,7,$3.15 ,42,2,10,8,,,BlockProc,BlockList,branch,3,3,2,3,f,1,f,Keyboard,0,34,533171,516,f,484,533655,3400,match,1,,TrialProc,TrialList1,Stimulus\SQUARET.png,0,1,1,36,,,,,,
ConcurrentTasks,22,4,ConcurrentTasks-Data-22-4,no,60.039,pain,1,-1493553276,07-13-2018,7/13/2018 8:47:29 PM,16:47:29,no,no,3,,,,,,,,,RunProc,,,1,2,3,RunList,,,,2,87.5,652.5,7,$3.15 ,42,2,10,8,,,BlockProc,BlockList,branch,3,3,2,4,f,1,f,Keyboard,0,34,537105,516,f,686,537791,2800,match,2,2,TrialProc,TrialList2,Stimulus\CIRCLET.png,0,,,,1,1,36,,,
ConcurrentTasks,22,4,ConcurrentTasks-Data-22-4,no,60.039,pain,1,-1493553276,07-13-2018,7/13/2018 8:47:29 PM,16:47:29,no,no,3,,,,,,,,,RunProc,,,1,2,3,RunList,,,,2,87.5,652.5,7,$3.15 ,42,2,10,8,,,BlockProc,BlockList,branch,3,3,2,5,j,1,j,Keyboard,0,33,540438,517,j,729,541167,3400,random,2,,TrialProc,TrialList2,Stimulus\CIRCLEB.png,2,,,,2,1,37,,,
ConcurrentTasks,22,4,ConcurrentTasks-Data-22-4,no,60.039,pain,1,-1493553276,07-13-2018,7/13/2018 8:47:29 PM,16:47:29,no,no,3,,,,,,,,,RunProc,,,1,2,3,RunList,,,,2,87.5,652.5,7,$3.15 ,42,2,10,8,,,BlockProc,BlockList,branch,3,3,2,6,f,1,f,Keyboard,0,34,544372,517,f,811,545183,2600,match,2,,TrialProc,TrialList2,Stimulus\CIRCLEL.png,3,,,,1,1,38,,,
ConcurrentTasks,22,4,ConcurrentTasks-Data-22-4,no,60.039,pain,1,-1493553276,07-13-2018,7/13/2018 8:47:29 PM,16:47:29,no,no,3,,,,,,,,,RunProc,,,1,2,3,RunList,,,,2,87.5,652.5,7,$3.15 ,42,2,10,8,,,BlockProc,BlockList,branch,3,3,2,7,f,0,f,Keyboard,0,18,547490,516,j,669,548159,3200,match,3,3,TrialProc,TrialList3,Stimulus\SQUAREA.png,1,,,,,,,1,1,24
ConcurrentTasks,22,4,ConcurrentTasks-Data-22-4,no,60.039,pain,1,-1493553276,07-13-2018,7/13/2018 8:47:29 PM,16:47:29,no,no,3,,,,,,,,,RunProc,,,1,2,3,RunList,,,,2,87.5,652.5,7,$3.15 ,42,2,10,8,,,BlockProc,BlockList,branch,3,3,2,8,j,1,j,Keyboard,0,34,551224,516,j,607,551831,2800,random,3,,TrialProc,TrialList3,Stimulus\SQUAREE.png,4,,,,,,,2,1,25
ConcurrentTasks,22,4,ConcurrentTasks-Data-22-4,no,60.039,pain,1,-1493553276,07-13-2018,7/13/2018 8:47:29 PM,16:47:29,no,no,3,,,,,,,,,RunProc,,,1,2,3,RunList,,,,3,80,737.6,8,$4.10 ,38,2,11,10,,,BlockProc,BlockList,switch,3,4,3,1,j,1,j,Keyboard,0,34,557558,517,j,601,558159,3000,random,1,1,TrialProc,TrialList1,Stimulus\SQUAREL.png,3,2,1,37,,,,,,
ConcurrentTasks,22,4,ConcurrentTasks-Data-22-4,no,60.039,pain,1,-1493553276,07-13-2018,7/13/2018 8:47:29 PM,16:47:29,no,no,3,,,,,,,,,RunProc,,,1,2,3,RunList,,,,3,80,737.6,8,$4.10 ,38,2,11,10,,,BlockProc,BlockList,switch,3,4,3,2,j,1,j,Keyboard,0,34,561092,517,j,1098,562190,3400,random,1,,TrialProc,TrialList1,Stimulus\SQUAREB.png,2,2,1,38,,,,,,
ConcurrentTasks,22,4,ConcurrentTasks-Data-22-4,no,60.039,pain,1,-1493553276,07-13-2018,7/13/2018 8:47:29 PM,16:47:29,no,no,3,,,,,,,,,RunProc,,,1,2,3,RunList,,,,3,80,737.6,8,$4.10 ,38,2,11,10,,,BlockProc,BlockList,switch,3,4,3,3,j,1,j,Keyboard,0,34,565026,516,j,572,565598,3400,random,1,,TrialProc,TrialList1,Stimulus\SQUARET.png,0,2,1,39,,,,,,
ConcurrentTasks,22,4,ConcurrentTasks-Data-22-4,no,60.039,pain,1,-1493553276,07-13-2018,7/13/2018 8:47:29 PM,16:47:29,no,no,3,,,,,,,,,RunProc,,,1,2,3,RunList,,,,3,80,737.6,8,$4.10 ,38,2,11,10,,,BlockProc,BlockList,switch,3,4,3,4,f,1,f,Keyboard,0,34,568960,516,f,774,569734,2600,match,2,2,TrialProc,TrialList2,Stimulus\DIAMONDT.png,0,,,,1,1,39,,,
ConcurrentTasks,22,4,ConcurrentTasks-Data-22-4,no,60.039,pain,1,-1493553276,07-13-2018,7/13/2018 8:47:29 PM,16:47:29,no,no,3,,,,,,,,,RunProc,,,1,2,3,RunList,,,,3,80,737.6,8,$4.10 ,38,2,11,10,,,BlockProc,BlockList,switch,3,4,3,5,j,1,j,Keyboard,0,34,572094,516,j,640,572734,3000,random,2,,TrialProc,TrialList2,Stimulus\DIAMONDL.png,3,,,,2,1,40,,,
ConcurrentTasks,22,4,ConcurrentTasks-Data-22-4,no,60.039,pain,1,-1493553276,07-13-2018,7/13/2018 8:47:29 PM,16:47:29,no,no,3,,,,,,,,,RunProc,,,1,2,3,RunList,,,,3,80,737.6,8,$4.10 ,38,2,11,10,,,BlockProc,BlockList,switch,3,4,3,6,j,1,j,Keyboard,0,33,575627,517,j,627,576254,2600,random,2,,TrialProc,TrialList2,Stimulus\DIAMONDA.png,1,,,,2,1,41,,,
ConcurrentTasks,22,4,ConcurrentTasks-Data-22-4,no,60.039,pain,1,-1493553276,07-13-2018,7/13/2018 8:47:29 PM,16:47:29,no,no,3,,,,,,,,,RunProc,,,1,2,3,RunList,,,,3,80,737.6,8,$4.10 ,38,2,11,10,,,BlockProc,BlockList,switch,3,4,3,7,f,0,f,Keyboard,0,34,578761,517,j,669,579430,3000,match,2,,TrialProc,TrialList2,Stimulus\DIAMONDB.png,2,,,,1,1,42,,,
ConcurrentTasks,22,4,ConcurrentTasks-Data-22-4,no,60.039,pain,1,-1493553276,07-13-2018,7/13/2018 8:47:29 PM,16:47:29,no,no,3,,,,,,,,,RunProc,,,1,2,3,RunList,,,,3,80,737.6,8,$4.10 ,38,2,11,10,,,BlockProc,BlockList,switch,3,4,3,8,f,0,f,Keyboard,0,34,582295,517,j,807,583102,2600,match,3,3,TrialProc,TrialList3,Stimulus\SQUARET.png,0,,,,,,,1,1,26
ConcurrentTasks,22,4,ConcurrentTasks-Data-22-4,no,60.039,pain,1,-1493553276,07-13-2018,7/13/2018 8:47:29 PM,16:47:29,no,no,3,,,,,,,,,RunProc,,,1,2,3,RunList,,,,3,80,737.6,8,$4.10 ,38,2,11,10,,,BlockProc,BlockList,switch,3,4,3,9,j,1,j,Keyboard,0,34,585429,517,j,849,586278,2800,random,3,,TrialProc,TrialList3,Stimulus\SQUAREL.png,3,,,,,,,2,1,27
ConcurrentTasks,22,4,ConcurrentTasks-Data-22-4,no,60.039,pain,1,-1493553276,07-13-2018,7/13/2018 8:47:29 PM,16:47:29,no,no,3,,,,,,,,,RunProc,,,1,2,3,RunList,,,,3,80,737.6,8,$4.10 ,38,2,11,10,,,BlockProc,BlockList,switch,3,4,3,10,j,1,j,Keyboard,0,34,588763,517,j,739,589502,2800,random,3,,TrialProc,TrialList3,Stimulus\SQUAREA.png,1,,,,,,,2,1,28
ConcurrentTasks,22,4,ConcurrentTasks-Data-22-4,no,60.039,pain,1,-1493553276,07-13-2018,7/13/2018 8:47:29 PM,16:47:29,no,no,3,,,,,,,,,RunProc,,,1,2,3,RunList,,,,4,100,608,10,$5.25 ,5,2,12,10,,,BlockProc,BlockList,branch,3,5,2,1,f,1,f,Keyboard,0,34,595097,517,f,541,595638,2600,match,1,1,TrialProc,TrialList1,Stimulus\SQUARET.png,0,1,1,40,,,,,,
ConcurrentTasks,22,4,ConcurrentTasks-Data-22-4,no,60.039,pain,1,-1493553276,07-13-2018,7/13/2018 8:47:29 PM,16:47:29,no,no,3,,,,,,,,,RunProc,,,1,2,3,RunList,,,,4,100,608,10,$5.25 ,5,2,12,10,,,BlockProc,BlockList,branch,3,5,2,2,j,1,j,Keyboard,0,34,598231,517,j,551,598782,2800,random,1,,TrialProc,TrialList1,Stimulus\SQUAREL.png,3,2,1,41,,,,,,
ConcurrentTasks,22,4,ConcurrentTasks-Data-22-4,no,60.039,pain,1,-1493553276,07-13-2018,7/13/2018 8:47:29 PM,16:47:29,no,no,3,,,,,,,,,RunProc,,,1,2,3,RunList,,,,4,100,608,10,$5.25 ,5,2,12,10,,,BlockProc,BlockList,branch,3,5,2,3,j,1,j,Keyboard,0,34,601565,517,j,1113,602678,2800,random,1,,TrialProc,TrialList1,Stimulus\SQUAREB.png,2,2,1,42,,,,,,
ConcurrentTasks,22,4,ConcurrentTasks-Data-22-4,no,60.039,pain,1,-1493553276,07-13-2018,7/13/2018 8:47:29 PM,16:47:29,no,no,3,,,,,,,,,RunProc,,,1,2,3,RunList,,,,4,100,608,10,$5.25 ,5,2,12,10,,,BlockProc,BlockList,branch,3,5,2,4,f,1,f,Keyboard,0,34,604899,516,f,683,605582,2600,match,2,2,TrialProc,TrialList2,Stimulus\CIRCLET.png,0,,,,1,1,43,,,
ConcurrentTasks,22,4,ConcurrentTasks-Data-22-4,no,60.039,pain,1,-1493553276,07-13-2018,7/13/2018 8:47:29 PM,16:47:29,no,no,3,,,,,,,,,RunProc,,,1,2,3,RunList,,,,4,100,608,10,$5.25 ,5,2,12,10,,,BlockProc,BlockList,branch,3,5,2,5,f,1,f,Keyboard,0,34,608033,516,f,429,608462,3200,match,2,,TrialProc,TrialList2,Stimulus\CIRCLEA.png,1,,,,1,1,44,,,
ConcurrentTasks,22,4,ConcurrentTasks-Data-22-4,no,60.039,pain,1,-1493553276,07-13-2018,7/13/2018 8:47:29 PM,16:47:29,no,no,3,,,,,,,,,RunProc,,,1,2,3,RunList,,,,4,100,608,10,$5.25 ,5,2,12,10,,,BlockProc,BlockList,branch,3,5,2,6,f,1,f,Keyboard,0,34,611767,516,f,439,612206,2600,match,2,,TrialProc,TrialList2,Stimulus\CIRCLEB.png,2,,,,1,1,45,,,
ConcurrentTasks,22,4,ConcurrentTasks-Data-22-4,no,60.039,pain,1,-1493553276,07-13-2018,7/13/2018 8:47:29 PM,16:47:29,no,no,3,,,,,,,,,RunProc,,,1,2,3,RunList,,,,4,100,608,10,$5.25 ,5,2,12,10,,,BlockProc,BlockList,branch,3,5,2,7,j,1,j,Keyboard,0,33,614900,517,j,690,615590,3400,random,2,,TrialProc,TrialList2,Stimulus\CIRCLEA.png,1,,,,2,1,46,,,
ConcurrentTasks,22,4,ConcurrentTasks-Data-22-4,no,60.039,pain,1,-1493553276,07-13-2018,7/13/2018 8:47:29 PM,16:47:29,no,no,3,,,,,,,,,RunProc,,,1,2,3,RunList,,,,4,100,608,10,$5.25 ,5,2,12,10,,,BlockProc,BlockList,branch,3,5,2,8,f,1,f,Keyboard,0,34,618834,517,f,628,619462,2600,match,2,,TrialProc,TrialList2,Stimulus\CIRCLEB.png,2,,,,1,1,47,,,
ConcurrentTasks,22,4,ConcurrentTasks-Data-22-4,no,60.039,pain,1,-1493553276,07-13-2018,7/13/2018 8:47:29 PM,16:47:29,no,no,3,,,,,,,,,RunProc,,,1,2,3,RunList,,,,4,100,608,10,$5.25 ,5,2,12,10,,,BlockProc,BlockList,branch,3,5,2,9,f,1,f,Keyboard,0,34,621968,517,f,454,622422,2600,match,3,3,TrialProc,TrialList3,Stimulus\SQUAREL.png,3,,,,,,,1,1,29
ConcurrentTasks,22,4,ConcurrentTasks-Data-22-4,no,60.039,pain,1,-1493553276,07-13-2018,7/13/2018 8:47:29 PM,16:47:29,no,no,3,,,,,,,,,RunProc,,,1,2,3,RunList,,,,4,100,608,10,$5.25 ,5,2,12,10,,,BlockProc,BlockList,branch,3,5,2,10,f,1,f,Keyboard,0,34,625102,517,f,552,625654,2800,match,3,,TrialProc,TrialList3,Stimulus\SQUAREE.png,4,,,,,,,1,1,30
ConcurrentTasks,22,4,ConcurrentTasks-Data-22-4,no,60.039,pain,1,-1493553276,07-13-2018,7/13/2018 8:47:29 PM,16:47:29,no,no,3,,,,,,,,,RunProc,,,1,2,3,RunList,,,,5,90,568.1,9,$4.20 ,37,2,13,10,,,BlockProc,BlockList,switch,3,4,3,1,j,1,j,Keyboard,0,34,631436,517,j,618,632054,2600,random,1,1,TrialProc,TrialList1,Stimulus\SQUAREA.png,1,2,1,43,,,,,,
ConcurrentTasks,22,4,ConcurrentTasks-Data-22-4,no,60.039,pain,1,-1493553276,07-13-2018,7/13/2018 8:47:29 PM,16:47:29,no,no,3,,,,,,,,,RunProc,,,1,2,3,RunList,,,,5,90,568.1,9,$4.20 ,37,2,13,10,,,BlockProc,BlockList,switch,3,4,3,2,f,1,f,Keyboard,0,34,634570,517,f,396,634966,2800,match,1,,TrialProc,TrialList1,Stimulus\SQUAREB.png,2,1,1,44,,,,,,
ConcurrentTasks,22,4,ConcurrentTasks-Data-22-4,no,60.039,pain,1,-1493553276,07-13-2018,7/13/2018 8:47:29 PM,16:47:29,no,no,3,,,,,,,,,RunProc,,,1,2,3,RunList,,,,5,90,568.1,9,$4.20 ,37,2,13,10,,,BlockProc,BlockList,switch,3,4,3,3,f,0,f,Keyboard,0,34,637904,517,j,406,638310,3200,match,1,,TrialProc,TrialList1,Stimulus\SQUAREL.png,3,1,1,45,,,,,,
ConcurrentTasks,22,4,ConcurrentTasks-Data-22-4,no,60.039,pain,1,-1493553276,07-13-2018,7/13/2018 8:47:29 PM,16:47:29,no,no,3,,,,,,,,,RunProc,,,1,2,3,RunList,,,,5,90,568.1,9,$4.20 ,37,2,13,10,,,BlockProc,BlockList,switch,3,4,3,4,f,1,f,Keyboard,0,34,641638,517,f,696,642334,3000,match,2,2,TrialProc,TrialList2,Stimulus\DIAMONDT.png,0,,,,1,1,48,,,
ConcurrentTasks,22,4,ConcurrentTasks-Data-22-4,no,60.039,pain,1,-1493553276,07-13-2018,7/13/2018 8:47:29 PM,16:47:29,no,no,3,,,,,,,,,RunProc,,,1,2,3,RunList,,,,5,90,568.1,9,$4.20 ,37,2,13,10,,,BlockProc,BlockList,switch,3,4,3,5,j,1,j,Keyboard,0,34,645172,517,j,706,645878,2600,random,2,,TrialProc,TrialList2,Stimulus\DIAMONDL.png,3,,,,2,1,49,,,
ConcurrentTasks,22,4,ConcurrentTasks-Data-22-4,no,60.039,pain,1,-1493553276,07-13-2018,7/13/2018 8:47:29 PM,16:47:29,no,no,3,,,,,,,,,RunProc,,,1,2,3,RunList,,,,5,90,568.1,9,$4.20 ,37,2,13,10,,,BlockProc,BlockList,switch,3,4,3,6,f,1,f,Keyboard,0,34,648306,516,f,428,648734,3200,match,2,,TrialProc,TrialList2,Stimulus\DIAMONDE.png,4,,,,1,1,50,,,
ConcurrentTasks,22,4,ConcurrentTasks-Data-22-4,no,60.039,pain,1,-1493553276,07-13-2018,7/13/2018 8:47:29 PM,16:47:29,no,no,3,,,,,,,,,RunProc,,,1,2,3,RunList,,,,5,90,568.1,9,$4.20 ,37,2,13,10,,,BlockProc,BlockList,switch,3,4,3,7,f,1,f,Keyboard,0,34,652040,516,f,566,652606,3000,match,2,,TrialProc,TrialList2,Stimulus\DIAMONDT.png,0,,,,1,1,51,,,
ConcurrentTasks,22,4,ConcurrentTasks-Data-22-4,no,60.039,pain,1,-1493553276,07-13-2018,7/13/2018 8:47:29 PM,16:47:29,no,no,3,,,,,,,,,RunProc,,,1,2,3,RunList,,,,5,90,568.1,9,$4.20 ,37,2,13,10,,,BlockProc,BlockList,switch,3,4,3,8,j,1,j,Keyboard,0,33,655573,517,j,825,656398,3200,random,3,3,TrialProc,TrialList3,Stimulus\SQUAREA.png,1,,,,,,,2,1,31
ConcurrentTasks,22,4,ConcurrentTasks-Data-22-4,no,60.039,pain,1,-1493553276,07-13-2018,7/13/2018 8:47:29 PM,16:47:29,no,no,3,,,,,,,,,RunProc,,,1,2,3,RunList,,,,5,90,568.1,9,$4.20 ,37,2,13,10,,,BlockProc,BlockList,switch,3,4,3,9,f,1,f,Keyboard,0,18,659291,517,f,411,659702,3200,match,3,,TrialProc,TrialList3,Stimulus\SQUAREB.png,2,,,,,,,1,1,32
ConcurrentTasks,22,4,ConcurrentTasks-Data-22-4,no,60.039,pain,1,-1493553276,07-13-2018,7/13/2018 8:47:29 PM,16:47:29,no,no,3,,,,,,,,,RunProc,,,1,2,3,RunList,,,,5,90,568.1,9,$4.20 ,37,2,13,10,,,BlockProc,BlockList,switch,3,4,3,10,j,1,j,Keyboard,0,34,663025,516,j,629,663654,2800,random,3,,TrialProc,TrialList3,Stimulus\SQUAREE.png,4,,,,,,,2,1,33
ConcurrentTasks,22,4,ConcurrentTasks-Data-22-4,no,60.039,pain,1,-1493553276,07-13-2018,7/13/2018 8:47:29 PM,16:47:29,no,no,3,,,,,,,,,RunProc,,,1,2,3,RunList,,,,6,100,542.667,9,$5.20 ,6,2,14,9,,,BlockProc,BlockList,switch,3,4,2,1,j,1,j,Keyboard,0,34,669359,517,j,559,669918,2800,random,1,1,TrialProc,TrialList1,Stimulus\SQUAREB.png,2,2,1,46,,,,,,
ConcurrentTasks,22,4,ConcurrentTasks-Data-22-4,no,60.039,pain,1,-1493553276,07-13-2018,7/13/2018 8:47:29 PM,16:47:29,no,no,3,,,,,,,,,RunProc,,,1,2,3,RunList,,,,6,100,542.667,9,$5.20 ,6,2,14,9,,,BlockProc,BlockList,switch,3,4,2,2,j,1,j,Keyboard,0,34,672693,517,j,505,673198,3000,random,1,,TrialProc,TrialList1,Stimulus\SQUAREA.png,1,2,1,47,,,,,,
ConcurrentTasks,22,4,ConcurrentTasks-Data-22-4,no,60.039,pain,1,-1493553276,07-13-2018,7/13/2018 8:47:29 PM,16:47:29,no,no,3,,,,,,,,,RunProc,,,1,2,3,RunList,,,,6,100,542.667,9,$5.20 ,6,2,14,9,,,BlockProc,BlockList,switch,3,4,2,3,j,1,j,Keyboard,0,34,676227,517,j,507,676734,2600,random,1,,TrialProc,TrialList1,Stimulus\SQUAREL.png,3,2,1,48,,,,,,
ConcurrentTasks,22,4,ConcurrentTasks-Data-22-4,no,60.039,pain,1,-1493553276,07-13-2018,7/13/2018 8:47:29 PM,16:47:29,no,no,3,,,,,,,,,RunProc,,,1,2,3,RunList,,,,6,100,542.667,9,$5.20 ,6,2,14,9,,,BlockProc,BlockList,switch,3,4,2,4,f,1,f,Keyboard,0,34,679361,516,f,613,679974,3200,match,2,2,TrialProc,TrialList2,Stimulus\DIAMONDT.png,0,,,,1,1,52,,,
ConcurrentTasks,22,4,ConcurrentTasks-Data-22-4,no,60.039,pain,1,-1493553276,07-13-2018,7/13/2018 8:47:29 PM,16:47:29,no,no,3,,,,,,,,,RunProc,,,1,2,3,RunList,,,,6,100,542.667,9,$5.20 ,6,2,14,9,,,BlockProc,BlockList,switch,3,4,2,5,j,1,j,Keyboard,0,34,683095,516,j,687,683782,3000,random,2,,TrialProc,TrialList2,Stimulus\DIAMONDE.png,4,,,,2,1,53,,,
ConcurrentTasks,22,4,ConcurrentTasks-Data-22-4,no,60.039,pain,1,-1493553276,07-13-2018,7/13/2018 8:47:29 PM,16:47:29,no,no,3,,,,,,,,,RunProc,,,1,2,3,RunList,,,,6,100,542.667,9,$5.20 ,6,2,14,9,,,BlockProc,BlockList,switch,3,4,2,6,j,1,j,Keyboard,0,33,686628,517,j,546,687174,3400,random,2,,TrialProc,TrialList2,Stimulus\DIAMONDL.png,3,,,,2,1,54,,,
ConcurrentTasks,22,4,ConcurrentTasks-Data-22-4,no,60.039,pain,1,-1493553276,07-13-2018,7/13/2018 8:47:29 PM,16:47:29,no,no,3,,,,,,,,,RunProc,,,1,2,3,RunList,,,,6,100,542.667,9,$5.20 ,6,2,14,9,,,BlockProc,BlockList,switch,3,4,2,7,f,1,f,Keyboard,0,18,690546,516,f,436,690982,3000,match,2,,TrialProc,TrialList2,Stimulus\DIAMONDE.png,4,,,,1,1,55,,,
ConcurrentTasks,22,4,ConcurrentTasks-Data-22-4,no,60.039,pain,1,-1493553276,07-13-2018,7/13/2018 8:47:29 PM,16:47:29,no,no,3,,,,,,,,,RunProc,,,1,2,3,RunList,,,,6,100,542.667,9,$5.20 ,6,2,14,9,,,BlockProc,BlockList,switch,3,4,2,8,f,1,f,Keyboard,0,34,694080,516,f,518,694598,2600,match,3,3,TrialProc,TrialList3,Stimulus\SQUARET.png,0,,,,,,,1,1,34
ConcurrentTasks,22,4,ConcurrentTasks-Data-22-4,no,60.039,pain,1,-1493553276,07-13-2018,7/13/2018 8:47:29 PM,16:47:29,no,no,3,,,,,,,,,RunProc,,,1,2,3,RunList,,,,6,100,542.667,9,$5.20 ,6,2,14,9,,,BlockProc,BlockList,switch,3,4,2,9,j,1,j,Keyboard,0,33,697213,517,j,513,697726,3200,random,3,,TrialProc,TrialList3,Stimulus\SQUAREL.png,3,,,,,,,2,1,35
ConcurrentTasks,22,4,ConcurrentTasks-Data-22-4,no,60.039,pain,1,-1493553276,07-13-2018,7/13/2018 8:47:29 PM,16:47:29,no,no,3,,,,,,,,,RunProc,,,1,2,3,RunList,,,,7,100,833.556,9,$6.15 ,26,2,15,9,,,BlockProc,BlockList,branch,4,3,2,1,j,1,j,Keyboard,0,35,703948,517,j,570,704518,3200,random,1,1,TrialProc,TrialList1,Stimulus\SQUAREE.png,4,2,1,49,,,,,,
ConcurrentTasks,22,4,ConcurrentTasks-Data-22-4,no,60.039,pain,1,-1493553276,07-13-2018,7/13/2018 8:47:29 PM,16:47:29,no,no,3,,,,,,,,,RunProc,,,1,2,3,RunList,,,,7,100,833.556,9,$6.15 ,26,2,15,9,,,BlockProc,BlockList,branch,4,3,2,2,j,1,j,Keyboard,0,34,707682,517,j,668,708350,2600,random,1,,TrialProc,TrialList1,Stimulus\SQUAREA.png,1,2,1,50,,,,,,
ConcurrentTasks,22,4,ConcurrentTasks-Data-22-4,no,60.039,pain,1,-1493553276,07-13-2018,7/13/2018 8:47:29 PM,16:47:29,no,no,3,,,,,,,,,RunProc,,,1,2,3,RunList,,,,7,100,833.556,9,$6.15 ,26,2,15,9,,,BlockProc,BlockList,branch,4,3,2,3,f,1,f,Keyboard,0,34,710816,516,f,1014,711830,3400,match,1,,TrialProc,TrialList1,Stimulus\SQUAREB.png,2,1,1,51,,,,,,
ConcurrentTasks,22,4,ConcurrentTasks-Data-22-4,no,60.039,pain,1,-1493553276,07-13-2018,7/13/2018 8:47:29 PM,16:47:29,no,no,3,,,,,,,,,RunProc,,,1,2,3,RunList,,,,7,100,833.556,9,$6.15 ,26,2,15,9,,,BlockProc,BlockList,branch,4,3,2,4,j,1,j,Keyboard,0,34,714750,516,j,880,715630,3000,random,1,,TrialProc,TrialList1,Stimulus\SQUARET.png,0,2,1,52,,,,,,
ConcurrentTasks,22,4,ConcurrentTasks-Data-22-4,no,60.039,pain,1,-1493553276,07-13-2018,7/13/2018 8:47:29 PM,16:47:29,no,no,3,,,,,,,,,RunProc,,,1,2,3,RunList,,,,7,100,833.556,9,$6.15 ,26,2,15,9,,,BlockProc,BlockList,branch,4,3,2,5,j,1,j,Keyboard,0,34,718284,516,j,1186,719470,3400,random,2,2,TrialProc,TrialList2,Stimulus\CIRCLEB.png,2,,,,2,1,56,,,
ConcurrentTasks,22,4,ConcurrentTasks-Data-22-4,no,60.039,pain,1,-1493553276,07-13-2018,7/13/2018 8:47:29 PM,16:47:29,no,no,3,,,,,,,,,RunProc,,,1,2,3,RunList,,,,7,100,833.556,9,$6.15 ,26,2,15,9,,,BlockProc,BlockList,branch,4,3,2,6,j,1,j,Keyboard,0,33,722217,517,j,797,723014,2800,random,2,,TrialProc,TrialList2,Stimulus\CIRCLET.png,0,,,,2,1,57,,,
ConcurrentTasks,22,4,ConcurrentTasks-Data-22-4,no,60.039,pain,1,-1493553276,07-13-2018,7/13/2018 8:47:29 PM,16:47:29,no,no,3,,,,,,,,,RunProc,,,1,2,3,RunList,,,,7,100,833.556,9,$6.15 ,26,2,15,9,,,BlockProc,BlockList,branch,4,3,2,7,j,1,j,Keyboard,0,34,725551,517,j,799,726350,3400,random,2,,TrialProc,TrialList2,Stimulus\CIRCLEB.png,2,,,,2,1,58,,,
ConcurrentTasks,22,4,ConcurrentTasks-Data-22-4,no,60.039,pain,1,-1493553276,07-13-2018,7/13/2018 8:47:29 PM,16:47:29,no,no,3,,,,,,,,,RunProc,,,1,2,3,RunList,,,,7,100,833.556,9,$6.15 ,26,2,15,9,,,BlockProc,BlockList,branch,4,3,2,8,j,1,j,Keyboard,0,34,729485,517,j,809,730294,2800,random,3,3,TrialProc,TrialList3,Stimulus\SQUAREB.png,2,,,,,,,2,1,36
ConcurrentTasks,22,4,ConcurrentTasks-Data-22-4,no,60.039,pain,1,-1493553276,07-13-2018,7/13/2018 8:47:29 PM,16:47:29,no,no,3,,,,,,,,,RunProc,,,1,2,3,RunList,,,,7,100,833.556,9,$6.15 ,26,2,15,9,,,BlockProc,BlockList,branch,4,3,2,9,j,1,j,Keyboard,0,34,732819,517,j,779,733598,2600,random,3,,TrialProc,TrialList3,Stimulus\SQUARET.png,0,,,,,,,2,1,37
ConcurrentTasks,22,4,ConcurrentTasks-Data-22-4,no,60.039,pain,1,-1493553276,07-13-2018,7/13/2018 8:47:29 PM,16:47:29,no,no,3,,,,,,,,,RunProc,,,1,2,3,RunList,,,,8,100,631,11,$6.25 ,27,2,16,11,,,BlockProc,BlockList,branch,3,5,3,1,j,1,j,Keyboard,0,34,738953,517,j,661,739614,2800,random,1,1,TrialProc,TrialList1,Stimulus\SQUAREL.png,3,2,1,53,,,,,,
ConcurrentTasks,22,4,ConcurrentTasks-Data-22-4,no,60.039,pain,1,-1493553276,07-13-2018,7/13/2018 8:47:29 PM,16:47:29,no,no,3,,,,,,,,,RunProc,,,1,2,3,RunList,,,,8,100,631,11,$6.25 ,27,2,16,11,,,BlockProc,BlockList,branch,3,5,3,2,f,1,f,Keyboard,0,18,742271,516,f,847,743118,3400,match,1,,TrialProc,TrialList1,Stimulus\SQUAREE.png,4,1,1,54,,,,,,
ConcurrentTasks,22,4,ConcurrentTasks-Data-22-4,no,60.039,pain,1,-1493553276,07-13-2018,7/13/2018 8:47:29 PM,16:47:29,no,no,3,,,,,,,,,RunProc,,,1,2,3,RunList,,,,8,100,631,11,$6.25 ,27,2,16,11,,,BlockProc,BlockList,branch,3,5,3,3,f,1,f,Keyboard,0,34,746205,516,f,577,746782,2800,match,1,,TrialProc,TrialList1,Stimulus\SQUARET.png,0,1,1,55,,,,,,
ConcurrentTasks,22,4,ConcurrentTasks-Data-22-4,no,60.039,pain,1,-1493553276,07-13-2018,7/13/2018 8:47:29 PM,16:47:29,no,no,3,,,,,,,,,RunProc,,,1,2,3,RunList,,,,8,100,631,11,$6.25 ,27,2,16,11,,,BlockProc,BlockList,branch,3,5,3,4,f,1,f,Keyboard,0,33,749538,517,f,844,750382,3000,match,2,2,TrialProc,TrialList2,Stimulus\CIRCLET.png,0,,,,1,1,59,,,
ConcurrentTasks,22,4,ConcurrentTasks-Data-22-4,no,60.039,pain,1,-1493553276,07-13-2018,7/13/2018 8:47:29 PM,16:47:29,no,no,3,,,,,,,,,RunProc,,,1,2,3,RunList,,,,8,100,631,11,$6.25 ,27,2,16,11,,,BlockProc,BlockList,branch,3,5,3,5,f,1,f,Keyboard,0,34,753072,517,f,382,753454,3400,match,2,,TrialProc,TrialList2,Stimulus\CIRCLEA.png,1,,,,1,1,60,,,
ConcurrentTasks,22,4,ConcurrentTasks-Data-22-4,no,60.039,pain,1,-1493553276,07-13-2018,7/13/2018 8:47:29 PM,16:47:29,no,no,3,,,,,,,,,RunProc,,,1,2,3,RunList,,,,8,100,631,11,$6.25 ,27,2,16,11,,,BlockProc,BlockList,branch,3,5,3,6,f,1,f,Keyboard,0,34,757006,517,f,464,757470,3400,match,2,,TrialProc,TrialList2,Stimulus\CIRCLEB.png,2,,,,1,1,61,,,
ConcurrentTasks,22,4,ConcurrentTasks-Data-22-4,no,60.039,pain,1,-1493553276,07-13-2018,7/13/2018 8:47:29 PM,16:47:29,no,no,3,,,,,,,,,RunProc,,,1,2,3,RunList,,,,8,100,631,11,$6.25 ,27,2,16,11,,,BlockProc,BlockList,branch,3,5,3,7,j,1,j,Keyboard,0,34,760940,517,j,754,761694,3400,random,2,,TrialProc,TrialList2,Stimulus\CIRCLEA.png,1,,,,2,1,62,,,
ConcurrentTasks,22,4,ConcurrentTasks-Data-22-4,no,60.039,pain,1,-1493553276,07-13-2018,7/13/2018 8:47:29 PM,16:47:29,no,no,3,,,,,,,,,RunProc,,,1,2,3,RunList,,,,8,100,631,11,$6.25 ,27,2,16,11,,,BlockProc,BlockList,branch,3,5,3,8,j,1,j,Keyboard,0,34,764874,517,j,844,765718,3000,random,2,,TrialProc,TrialList2,Stimulus\CIRCLET.png,0,,,,2,1,63,,,
ConcurrentTasks,22,4,ConcurrentTasks-Data-22-4,no,60.039,pain,1,-1493553276,07-13-2018,7/13/2018 8:47:29 PM,16:47:29,no,no,3,,,,,,,,,RunProc,,,1,2,3,RunList,,,,8,100,631,11,$6.25 ,27,2,16,11,,,BlockProc,BlockList,branch,3,5,3,9,j,1,j,Keyboard,0,34,768408,517,j,590,768998,3000,random,3,3,TrialProc,TrialList3,Stimulus\SQUAREB.png,2,,,,,,,2,1,38
ConcurrentTasks,22,4,ConcurrentTasks-Data-22-4,no,60.039,pain,1,-1493553276,07-13-2018,7/13/2018 8:47:29 PM,16:47:29,no,no,3,,,,,,,,,RunProc,,,1,2,3,RunList,,,,8,100,631,11,$6.25 ,27,2,16,11,,,BlockProc,BlockList,branch,3,5,3,10,j,1,j,Keyboard,0,34,771942,517,j,528,772470,3000,random,3,,TrialProc,TrialList3,Stimulus\SQUAREE.png,4,,,,,,,2,1,39
ConcurrentTasks,22,4,ConcurrentTasks-Data-22-4,no,60.039,pain,1,-1493553276,07-13-2018,7/13/2018 8:47:29 PM,16:47:29,no,no,3,,,,,,,,,RunProc,,,1,2,3,RunList,,,,8,100,631,11,$6.25 ,27,2,16,11,,,BlockProc,BlockList,branch,3,5,3,11,f,1,f,Keyboard,0,34,775476,517,f,450,775926,3200,match,3,,TrialProc,TrialList3,Stimulus\SQUARET.png,0,,,,,,,1,1,40
ConcurrentTasks,22,4,ConcurrentTasks-Data-22-4,no,60.039,pain,1,-1493553276,07-13-2018,7/13/2018 8:47:29 PM,16:47:29,no,no,4,94.66666,75,648.48,94.93671,612.854,9,TRUE,Keyboard,RestProc,Keyboard,$39.45 ,2,2,4,RunList,10,$85.95 ,10,,,,,,,,,,,,,,,,,,,,,,,,,,,,,,,,,,,,,,,,,,,,,,
ConcurrentTasks,22,4,ConcurrentTasks-Data-22-4,no,60.039,pain,1,-1493553276,07-13-2018,7/13/2018 8:47:29 PM,16:47:29,no,no,5,,,,,,,,,RunProc,,,1,3,5,RunList,,,,1,100,583.636,11,$7.20 ,45,2,17,11,,,BlockProc,BlockList,switch,4,4,3,1,j,1,j,Keyboard,0,34,963323,516,j,506,963829,3000,random,1,1,TrialProc,TrialList1,Stimulus\SQUAREL.png,3,2,1,56,,,,,,
ConcurrentTasks,22,4,ConcurrentTasks-Data-22-4,no,60.039,pain,1,-1493553276,07-13-2018,7/13/2018 8:47:29 PM,16:47:29,no,no,5,,,,,,,,,RunProc,,,1,3,5,RunList,,,,1,100,583.636,11,$7.20 ,45,2,17,11,,,BlockProc,BlockList,switch,4,4,3,2,f,1,f,Keyboard,0,33,966856,517,f,445,967301,2800,match,1,,TrialProc,TrialList1,Stimulus\SQUAREE.png,4,1,1,57,,,,,,
ConcurrentTasks,22,4,ConcurrentTasks-Data-22-4,no,60.039,pain,1,-1493553276,07-13-2018,7/13/2018 8:47:29 PM,16:47:29,no,no,5,,,,,,,,,RunProc,,,1,3,5,RunList,,,,1,100,583.636,11,$7.20 ,45,2,17,11,,,BlockProc,BlockList,switch,4,4,3,3,f,1,f,Keyboard,0,18,970174,516,f,415,970589,2800,match,1,,TrialProc,TrialList1,Stimulus\SQUARET.png,0,1,1,58,,,,,,
ConcurrentTasks,22,4,ConcurrentTasks-Data-22-4,no,60.039,pain,1,-1493553276,07-13-2018,7/13/2018 8:47:29 PM,16:47:29,no,no,5,,,,,,,,,RunProc,,,1,3,5,RunList,,,,1,100,583.636,11,$7.20 ,45,2,17,11,,,BlockProc,BlockList,switch,4,4,3,4,j,1,j,Keyboard,0,34,973508,516,j,1097,974605,3400,random,1,,TrialProc,TrialList1,Stimulus\SQUAREB.png,2,2,1,59,,,,,,
ConcurrentTasks,22,4,ConcurrentTasks-Data-22-4,no,60.039,pain,1,-1493553276,07-13-2018,7/13/2018 8:47:29 PM,16:47:29,no,no,5,,,,,,,,,RunProc,,,1,3,5,RunList,,,,1,100,583.636,11,$7.20 ,45,2,17,11,,,BlockProc,BlockList,switch,4,4,3,5,j,1,j,Keyboard,0,34,977442,516,j,683,978125,3000,random,2,2,TrialProc,TrialList2,Stimulus\DIAMONDB.png,2,,,,2,1,64,,,
ConcurrentTasks,22,4,ConcurrentTasks-Data-22-4,no,60.039,pain,1,-1493553276,07-13-2018,7/13/2018 8:47:29 PM,16:47:29,no,no,5,,,,,,,,,RunProc,,,1,3,5,RunList,,,,1,100,583.636,11,$7.20 ,45,2,17,11,,,BlockProc,BlockList,switch,4,4,3,6,f,1,f,Keyboard,0,33,980975,517,f,526,981501,2800,match,2,,TrialProc,TrialList2,Stimulus\DIAMONDL.png,3,,,,1,1,65,,,
ConcurrentTasks,22,4,ConcurrentTasks-Data-22-4,no,60.039,pain,1,-1493553276,07-13-2018,7/13/2018 8:47:29 PM,16:47:29,no,no,5,,,,,,,,,RunProc,,,1,3,5,RunList,,,,1,100,583.636,11,$7.20 ,45,2,17,11,,,BlockProc,BlockList,switch,4,4,3,7,f,1,f,Keyboard,0,34,984309,517,f,744,985053,3400,match,2,,TrialProc,TrialList2,Stimulus\DIAMONDE.png,4,,,,1,1,66,,,
ConcurrentTasks,22,4,ConcurrentTasks-Data-22-4,no,60.039,pain,1,-1493553276,07-13-2018,7/13/2018 8:47:29 PM,16:47:29,no,no,5,,,,,,,,,RunProc,,,1,3,5,RunList,,,,1,100,583.636,11,$7.20 ,45,2,17,11,,,BlockProc,BlockList,switch,4,4,3,8,f,1,f,Keyboard,0,34,988243,517,f,442,988685,2600,match,2,,TrialProc,TrialList2,Stimulus\DIAMONDT.png,0,,,,1,1,67,,,
ConcurrentTasks,22,4,ConcurrentTasks-Data-22-4,no,60.039,pain,1,-1493553276,07-13-2018,7/13/2018 8:47:29 PM,16:47:29,no,no,5,,,,,,,,,RunProc,,,1,3,5,RunList,,,,1,100,583.636,11,$7.20 ,45,2,17,11,,,BlockProc,BlockList,switch,4,4,3,9,j,1,j,Keyboard,0,34,991377,517,j,588,991965,2600,random,3,3,TrialProc,TrialList3,Stimulus\SQUAREE.png,4,,,,,,,2,1,41
ConcurrentTasks,22,4,ConcurrentTasks-Data-22-4,no,60.039,pain,1,-1493553276,07-13-2018,7/13/2018 8:47:29 PM,16:47:29,no,no,5,,,,,,,,,RunProc,,,1,3,5,RunList,,,,1,100,583.636,11,$7.20 ,45,2,17,11,,,BlockProc,BlockList,switch,4,4,3,10,f,1,f,Keyboard,0,34,994511,517,f,398,994909,3200,match,3,,TrialProc,TrialList3,Stimulus\SQUARET.png,0,,,,,,,1,1,42
ConcurrentTasks,22,4,ConcurrentTasks-Data-22-4,no,60.039,pain,1,-1493553276,07-13-2018,7/13/2018 8:47:29 PM,16:47:29,no,no,5,,,,,,,,,RunProc,,,1,3,5,RunList,,,,1,100,583.636,11,$7.20 ,45,2,17,11,,,BlockProc,BlockList,switch,4,4,3,11,j,1,j,Keyboard,0,34,998245,517,j,576,998821,3000,random,3,,TrialProc,TrialList3,Stimulus\SQUAREB.png,2,,,,,,,2,1,43
ConcurrentTasks,22,4,ConcurrentTasks-Data-22-4,no,60.039,pain,1,-1493553276,07-13-2018,7/13/2018 8:47:29 PM,16:47:29,no,no,5,,,,,,,,,RunProc,,,1,3,5,RunList,,,,2,90,736.9,9,$4.20 ,56,2,18,10,,,BlockProc,BlockList,branch,4,4,2,1,f,1,f,Keyboard,0,34,1004779,517,f,418,1005197,2600,match,1,1,TrialProc,TrialList1,Stimulus\SQUARET.png,0,1,1,60,,,,,,
ConcurrentTasks,22,4,ConcurrentTasks-Data-22-4,no,60.039,pain,1,-1493553276,07-13-2018,7/13/2018 8:47:29 PM,16:47:29,no,no,5,,,,,,,,,RunProc,,,1,3,5,RunList,,,,2,90,736.9,9,$4.20 ,56,2,18,10,,,BlockProc,BlockList,branch,4,4,2,2,j,1,j,Keyboard,0,34,1007913,517,j,468,1008381,3400,random,1,,TrialProc,TrialList1,Stimulus\SQUAREB.png,2,2,1,61,,,,,,
ConcurrentTasks,22,4,ConcurrentTasks-Data-22-4,no,60.039,pain,1,-1493553276,07-13-2018,7/13/2018 8:47:29 PM,16:47:29,no,no,5,,,,,,,,,RunProc,,,1,3,5,RunList,,,,2,90,736.9,9,$4.20 ,56,2,18,10,,,BlockProc,BlockList,branch,4,4,2,3,j,1,j,Keyboard,0,34,1011847,517,j,726,1012573,3000,random,1,,TrialProc,TrialList1,Stimulus\SQUARET.png,0,2,1,62,,,,,,
ConcurrentTasks,22,4,ConcurrentTasks-Data-22-4,no,60.039,pain,1,-1493553276,07-13-2018,7/13/2018 8:47:29 PM,16:47:29,no,no,5,,,,,,,,,RunProc,,,1,3,5,RunList,,,,2,90,736.9,9,$4.20 ,56,2,18,10,,,BlockProc,BlockList,branch,4,4,2,4,f,0,f,Keyboard,0,34,1015381,517,j,1152,1016533,2600,match,1,,TrialProc,TrialList1,Stimulus\SQUAREA.png,1,1,1,63,,,,,,
ConcurrentTasks,22,4,ConcurrentTasks-Data-22-4,no,60.039,pain,1,-1493553276,07-13-2018,7/13/2018 8:47:29 PM,16:47:29,no,no,5,,,,,,,,,RunProc,,,1,3,5,RunList,,,,2,90,736.9,9,$4.20 ,56,2,18,10,,,BlockProc,BlockList,branch,4,4,2,5,j,1,j,Keyboard,0,34,1018515,516,j,986,1019501,3000,random,2,2,TrialProc,TrialList2,Stimulus\CIRCLEB.png,2,,,,2,1,68,,,
ConcurrentTasks,22,4,ConcurrentTasks-Data-22-4,no,60.039,pain,1,-1493553276,07-13-2018,7/13/2018 8:47:29 PM,16:47:29,no,no,5,,,,,,,,,RunProc,,,1,3,5,RunList,,,,2,90,736.9,9,$4.20 ,56,2,18,10,,,BlockProc,BlockList,branch,4,4,2,6,j,1,j,Keyboard,0,34,1022049,516,j,892,1022941,3200,random,2,,TrialProc,TrialList2,Stimulus\CIRCLEA.png,1,,,,2,1,69,,,
ConcurrentTasks,22,4,ConcurrentTasks-Data-22-4,no,60.039,pain,1,-1493553276,07-13-2018,7/13/2018 8:47:29 PM,16:47:29,no,no,5,,,,,,,,,RunProc,,,1,3,5,RunList,,,,2,90,736.9,9,$4.20 ,56,2,18,10,,,BlockProc,BlockList,branch,4,4,2,7,f,1,f,Keyboard,0,34,1025783,516,f,366,1026149,3200,match,2,,TrialProc,TrialList2,Stimulus\CIRCLEB.png,2,,,,1,1,70,,,
ConcurrentTasks,22,4,ConcurrentTasks-Data-22-4,no,60.039,pain,1,-1493553276,07-13-2018,7/13/2018 8:47:29 PM,16:47:29,no,no,5,,,,,,,,,RunProc,,,1,3,5,RunList,,,,2,90,736.9,9,$4.20 ,56,2,18,10,,,BlockProc,BlockList,branch,4,4,2,8,j,1,j,Keyboard,0,33,1029516,517,j,553,1030069,3400,random,2,,TrialProc,TrialList2,Stimulus\CIRCLEE.png,4,,,,2,1,71,,,
ConcurrentTasks,22,4,ConcurrentTasks-Data-22-4,no,60.039,pain,1,-1493553276,07-13-2018,7/13/2018 8:47:29 PM,16:47:29,no,no,5,,,,,,,,,RunProc,,,1,3,5,RunList,,,,2,90,736.9,9,$4.20 ,56,2,18,10,,,BlockProc,BlockList,branch,4,4,2,9,j,1,j,Keyboard,0,18,1033434,517,j,1195,1034629,3000,random,3,3,TrialProc,TrialList3,Stimulus\SQUAREL.png,3,,,,,,,2,1,44
ConcurrentTasks,22,4,ConcurrentTasks-Data-22-4,no,60.039,pain,1,-1493553276,07-13-2018,7/13/2018 8:47:29 PM,16:47:29,no,no,5,,,,,,,,,RunProc,,,1,3,5,RunList,,,,2,90,736.9,9,$4.20 ,56,2,18,10,,,BlockProc,BlockList,branch,4,4,2,10,f,1,f,Keyboard,0,34,1036968,516,f,613,1037581,2600,match,3,,TrialProc,TrialList3,Stimulus\SQUAREE.png,4,,,,,,,1,1,45
ConcurrentTasks,22,4,ConcurrentTasks-Data-22-4,no,60.039,pain,1,-1493553276,07-13-2018,7/13/2018 8:47:29 PM,16:47:29,no,no,5,,,,,,,,,RunProc,,,1,3,5,RunList,,,,3,100,556.273,11,$6.25 ,62,2,19,11,,,BlockProc,BlockList,switch,4,5,2,1,f,1,f,Keyboard,0,34,1043102,517,f,495,1043597,3400,match,1,1,TrialProc,TrialList1,Stimulus\SQUARET.png,0,1,1,64,,,,,,
ConcurrentTasks,22,4,ConcurrentTasks-Data-22-4,no,60.039,pain,1,-1493553276,07-13-2018,7/13/2018 8:47:29 PM,16:47:29,no,no,5,,,,,,,,,RunProc,,,1,3,5,RunList,,,,3,100,556.273,11,$6.25 ,62,2,19,11,,,BlockProc,BlockList,switch,4,5,2,2,f,1,f,Keyboard,0,34,1047036,517,f,521,1047557,2800,match,1,,TrialProc,TrialList1,Stimulus\SQUAREA.png,1,1,1,65,,,,,,
ConcurrentTasks,22,4,ConcurrentTasks-Data-22-4,no,60.039,pain,1,-1493553276,07-13-2018,7/13/2018 8:47:29 PM,16:47:29,no,no,5,,,,,,,,,RunProc,,,1,3,5,RunList,,,,3,100,556.273,11,$6.25 ,62,2,19,11,,,BlockProc,BlockList,switch,4,5,2,3,j,1,j,Keyboard,0,34,1050370,517,j,579,1050949,3200,random,1,,TrialProc,TrialList1,Stimulus\SQUAREE.png,4,2,1,66,,,,,,
ConcurrentTasks,22,4,ConcurrentTasks-Data-22-4,no,60.039,pain,1,-1493553276,07-13-2018,7/13/2018 8:47:29 PM,16:47:29,no,no,5,,,,,,,,,RunProc,,,1,3,5,RunList,,,,3,100,556.273,11,$6.25 ,62,2,19,11,,,BlockProc,BlockList,switch,4,5,2,4,j,1,j,Keyboard,0,34,1054104,516,j,557,1054661,3000,random,1,,TrialProc,TrialList1,Stimulus\SQUAREB.png,2,2,1,67,,,,,,
ConcurrentTasks,22,4,ConcurrentTasks-Data-22-4,no,60.039,pain,1,-1493553276,07-13-2018,7/13/2018 8:47:29 PM,16:47:29,no,no,5,,,,,,,,,RunProc,,,1,3,5,RunList,,,,3,100,556.273,11,$6.25 ,62,2,19,11,,,BlockProc,BlockList,switch,4,5,2,5,f,1,f,Keyboard,0,34,1057638,516,f,767,1058405,3400,match,2,2,TrialProc,TrialList2,Stimulus\DIAMONDT.png,0,,,,1,1,72,,,
ConcurrentTasks,22,4,ConcurrentTasks-Data-22-4,no,60.039,pain,1,-1493553276,07-13-2018,7/13/2018 8:47:29 PM,16:47:29,no,no,5,,,,,,,,,RunProc,,,1,3,5,RunList,,,,3,100,556.273,11,$6.25 ,62,2,19,11,,,BlockProc,BlockList,switch,4,5,2,6,j,1,j,Keyboard,0,34,1061572,516,j,609,1062181,3000,random,2,,TrialProc,TrialList2,Stimulus\DIAMONDL.png,3,,,,2,1,73,,,
ConcurrentTasks,22,4,ConcurrentTasks-Data-22-4,no,60.039,pain,1,-1493553276,07-13-2018,7/13/2018 8:47:29 PM,16:47:29,no,no,5,,,,,,,,,RunProc,,,1,3,5,RunList,,,,3,100,556.273,11,$6.25 ,62,2,19,11,,,BlockProc,BlockList,switch,4,5,2,7,f,1,f,Keyboard,0,34,1065106,516,f,451,1065557,3200,match,2,,TrialProc,TrialList2,Stimulus\DIAMONDE.png,4,,,,1,1,74,,,
ConcurrentTasks,22,4,ConcurrentTasks-Data-22-4,no,60.039,pain,1,-1493553276,07-13-2018,7/13/2018 8:47:29 PM,16:47:29,no,no,5,,,,,,,,,RunProc,,,1,3,5,RunList,,,,3,100,556.273,11,$6.25 ,62,2,19,11,,,BlockProc,BlockList,switch,4,5,2,8,j,1,j,Keyboard,0,33,1068839,517,j,614,1069453,2600,random,2,,TrialProc,TrialList2,Stimulus\DIAMONDA.png,1,,,,2,1,75,,,
ConcurrentTasks,22,4,ConcurrentTasks-Data-22-4,no,60.039,pain,1,-1493553276,07-13-2018,7/13/2018 8:47:29 PM,16:47:29,no,no,5,,,,,,,,,RunProc,,,1,3,5,RunList,,,,3,100,556.273,11,$6.25 ,62,2,19,11,,,BlockProc,BlockList,switch,4,5,2,9,j,1,j,Keyboard,0,34,1071973,517,j,640,1072613,3200,random,2,,TrialProc,TrialList2,Stimulus\DIAMONDE.png,4,,,,2,1,76,,,
ConcurrentTasks,22,4,ConcurrentTasks-Data-22-4,no,60.039,pain,1,-1493553276,07-13-2018,7/13/2018 8:47:29 PM,16:47:29,no,no,5,,,,,,,,,RunProc,,,1,3,5,RunList,,,,3,100,556.273,11,$6.25 ,62,2,19,11,,,BlockProc,BlockList,switch,4,5,2,10,f,1,f,Keyboard,0,34,1075707,517,f,434,1076141,3400,match,3,3,TrialProc,TrialList3,Stimulus\SQUARET.png,0,,,,,,,1,1,46
ConcurrentTasks,22,4,ConcurrentTasks-Data-22-4,no,60.039,pain,1,-1493553276,07-13-2018,7/13/2018 8:47:29 PM,16:47:29,no,no,5,,,,,,,,,RunProc,,,1,3,5,RunList,,,,3,100,556.273,11,$6.25 ,62,2,19,11,,,BlockProc,BlockList,switch,4,5,2,11,f,1,f,Keyboard,0,34,1079641,517,f,452,1080093,3000,match,3,,TrialProc,TrialList3,Stimulus\SQUAREA.png,1,,,,,,,1,1,47
ConcurrentTasks,22,4,ConcurrentTasks-Data-22-4,no,60.039,pain,1,-1493553276,07-13-2018,7/13/2018 8:47:29 PM,16:47:29,no,no,5,,,,,,,,,RunProc,,,1,3,5,RunList,,,,4,100,474,11,$6.25 ,7,2,20,11,,,BlockProc,BlockList,switch,3,5,3,1,f,1,f,Keyboard,0,35,1086176,516,f,421,1086597,3000,match,1,1,TrialProc,TrialList1,Stimulus\SQUARET.png,0,1,1,68,,,,,,
ConcurrentTasks,22,4,ConcurrentTasks-Data-22-4,no,60.039,pain,1,-1493553276,07-13-2018,7/13/2018 8:47:29 PM,16:47:29,no,no,5,,,,,,,,,RunProc,,,1,3,5,RunList,,,,4,100,474,11,$6.25 ,7,2,20,11,,,BlockProc,BlockList,switch,3,5,3,2,f,1,f,Keyboard,0,33,1089709,517,f,360,1090069,2800,match,1,,TrialProc,TrialList1,Stimulus\SQUAREA.png,1,1,1,69,,,,,,
ConcurrentTasks,22,4,ConcurrentTasks-Data-22-4,no,60.039,pain,1,-1493553276,07-13-2018,7/13/2018 8:47:29 PM,16:47:29,no,no,5,,,,,,,,,RunProc,,,1,3,5,RunList,,,,4,100,474,11,$6.25 ,7,2,20,11,,,BlockProc,BlockList,switch,3,5,3,3,j,1,j,Keyboard,0,18,1093027,516,j,562,1093589,3200,random,1,,TrialProc,TrialList1,Stimulus\SQUAREE.png,4,2,1,70,,,,,,
ConcurrentTasks,22,4,ConcurrentTasks-Data-22-4,no,60.039,pain,1,-1493553276,07-13-2018,7/13/2018 8:47:29 PM,16:47:29,no,no,5,,,,,,,,,RunProc,,,1,3,5,RunList,,,,4,100,474,11,$6.25 ,7,2,20,11,,,BlockProc,BlockList,switch,3,5,3,4,f,1,f,Keyboard,0,34,1096761,516,f,380,1097141,3200,match,2,2,TrialProc,TrialList2,Stimulus\DIAMONDT.png,0,,,,1,1,77,,,
ConcurrentTasks,22,4,ConcurrentTasks-Data-22-4,no,60.039,pain,1,-1493553276,07-13-2018,7/13/2018 8:47:29 PM,16:47:29,no,no,5,,,,,,,,,RunProc,,,1,3,5,RunList,,,,4,100,474,11,$6.25 ,7,2,20,11,,,BlockProc,BlockList,switch,3,5,3,5,j,1,j,Keyboard,0,33,1100494,517,j,463,1100957,3000,random,2,,TrialProc,TrialList2,Stimulus\DIAMONDE.png,4,,,,2,1,78,,,
ConcurrentTasks,22,4,ConcurrentTasks-Data-22-4,no,60.039,pain,1,-1493553276,07-13-2018,7/13/2018 8:47:29 PM,16:47:29,no,no,5,,,,,,,,,RunProc,,,1,3,5,RunList,,,,4,100,474,11,$6.25 ,7,2,20,11,,,BlockProc,BlockList,switch,3,5,3,6,j,1,j,Keyboard,0,34,1104028,517,j,537,1104565,3000,random,2,,TrialProc,TrialList2,Stimulus\DIAMONDA.png,1,,,,2,1,79,,,
ConcurrentTasks,22,4,ConcurrentTasks-Data-22-4,no,60.039,pain,1,-1493553276,07-13-2018,7/13/2018 8:47:29 PM,16:47:29,no,no,5,,,,,,,,,RunProc,,,1,3,5,RunList,,,,4,100,474,11,$6.25 ,7,2,20,11,,,BlockProc,BlockList,switch,3,5,3,7,f,1,f,Keyboard,0,34,1107562,517,f,475,1108037,2600,match,2,,TrialProc,TrialList2,Stimulus\DIAMONDB.png,2,,,,1,1,80,,,
ConcurrentTasks,22,4,ConcurrentTasks-Data-22-4,no,60.039,pain,1,-1493553276,07-13-2018,7/13/2018 8:47:29 PM,16:47:29,no,no,5,,,,,,,,,RunProc,,,1,3,5,RunList,,,,4,100,474,11,$6.25 ,7,2,20,11,,,BlockProc,BlockList,switch,3,5,3,8,f,1,f,Keyboard,0,34,1110696,517,f,533,1111229,2800,match,2,,TrialProc,TrialList2,Stimulus\DIAMONDL.png,3,,,,1,1,81,,,
ConcurrentTasks,22,4,ConcurrentTasks-Data-22-4,no,60.039,pain,1,-1493553276,07-13-2018,7/13/2018 8:47:29 PM,16:47:29,no,no,5,,,,,,,,,RunProc,,,1,3,5,RunList,,,,4,100,474,11,$6.25 ,7,2,20,11,,,BlockProc,BlockList,switch,3,5,3,9,j,1,j,Keyboard,0,34,1114030,517,j,583,1114613,3400,random,3,3,TrialProc,TrialList3,Stimulus\SQUAREB.png,2,,,,,,,2,1,48
ConcurrentTasks,22,4,ConcurrentTasks-Data-22-4,no,60.039,pain,1,-1493553276,07-13-2018,7/13/2018 8:47:29 PM,16:47:29,no,no,5,,,,,,,,,RunProc,,,1,3,5,RunList,,,,4,100,474,11,$6.25 ,7,2,20,11,,,BlockProc,BlockList,switch,3,5,3,10,f,1,f,Keyboard,0,34,1117964,517,f,433,1118397,3400,match,3,,TrialProc,TrialList3,Stimulus\SQUAREL.png,3,,,,,,,1,1,49
ConcurrentTasks,22,4,ConcurrentTasks-Data-22-4,no,60.039,pain,1,-1493553276,07-13-2018,7/13/2018 8:47:29 PM,16:47:29,no,no,5,,,,,,,,,RunProc,,,1,3,5,RunList,,,,4,100,474,11,$6.25 ,7,2,20,11,,,BlockProc,BlockList,switch,3,5,3,11,f,1,f,Keyboard,0,34,1121898,517,f,467,1122365,2800,match,3,,TrialProc,TrialList3,Stimulus\SQUAREE.png,4,,,,,,,1,1,50
ConcurrentTasks,22,4,ConcurrentTasks-Data-22-4,no,60.039,pain,1,-1493553276,07-13-2018,7/13/2018 8:47:29 PM,16:47:29,no,no,5,,,,,,,,,RunProc,,,1,3,5,RunList,,,,5,100,596.727,11,$6.25 ,9,2,21,11,,,BlockProc,BlockList,switch,3,5,3,1,j,1,j,Keyboard,0,34,1128232,517,j,405,1128637,3000,random,1,1,TrialProc,TrialList1,Stimulus\SQUAREL.png,3,2,1,71,,,,,,
ConcurrentTasks,22,4,ConcurrentTasks-Data-22-4,no,60.039,pain,1,-1493553276,07-13-2018,7/13/2018 8:47:29 PM,16:47:29,no,no,5,,,,,,,,,RunProc,,,1,3,5,RunList,,,,5,100,596.727,11,$6.25 ,9,2,21,11,,,BlockProc,BlockList,switch,3,5,3,2,f,1,f,Keyboard,0,34,1131766,517,f,495,1132261,3000,match,1,,TrialProc,TrialList1,Stimulus\SQUAREE.png,4,1,1,72,,,,,,
ConcurrentTasks,22,4,ConcurrentTasks-Data-22-4,no,60.039,pain,1,-1493553276,07-13-2018,7/13/2018 8:47:29 PM,16:47:29,no,no,5,,,,,,,,,RunProc,,,1,3,5,RunList,,,,5,100,596.727,11,$6.25 ,9,2,21,11,,,BlockProc,BlockList,switch,3,5,3,3,j,1,j,Keyboard,0,34,1135300,517,j,617,1135917,3200,random,1,,TrialProc,TrialList1,Stimulus\SQUAREA.png,1,2,1,73,,,,,,
ConcurrentTasks,22,4,ConcurrentTasks-Data-22-4,no,60.039,pain,1,-1493553276,07-13-2018,7/13/2018 8:47:29 PM,16:47:29,no,no,5,,,,,,,,,RunProc,,,1,3,5,RunList,,,,5,100,596.727,11,$6.25 ,9,2,21,11,,,BlockProc,BlockList,switch,3,5,3,4,f,1,f,Keyboard,0,34,1139034,517,f,859,1139893,2800,match,2,2,TrialProc,TrialList2,Stimulus\DIAMONDT.png,0,,,,1,1,82,,,
ConcurrentTasks,22,4,ConcurrentTasks-Data-22-4,no,60.039,pain,1,-1493553276,07-13-2018,7/13/2018 8:47:29 PM,16:47:29,no,no,5,,,,,,,,,RunProc,,,1,3,5,RunList,,,,5,100,596.727,11,$6.25 ,9,2,21,11,,,BlockProc,BlockList,switch,3,5,3,5,f,1,f,Keyboard,0,34,1142368,517,f,669,1143037,3200,match,2,,TrialProc,TrialList2,Stimulus\DIAMONDA.png,1,,,,1,1,83,,,
ConcurrentTasks,22,4,ConcurrentTasks-Data-22-4,no,60.039,pain,1,-1493553276,07-13-2018,7/13/2018 8:47:29 PM,16:47:29,no,no,5,,,,,,,,,RunProc,,,1,3,5,RunList,,,,5,100,596.727,11,$6.25 ,9,2,21,11,,,BlockProc,BlockList,switch,3,5,3,6,j,1,j,Keyboard,0,34,1146102,517,j,551,1146653,3200,random,2,,TrialProc,TrialList2,Stimulus\DIAMONDE.png,4,,,,2,1,84,,,
ConcurrentTasks,22,4,ConcurrentTasks-Data-22-4,no,60.039,pain,1,-1493553276,07-13-2018,7/13/2018 8:47:29 PM,16:47:29,no,no,5,,,,,,,,,RunProc,,,1,3,5,RunList,,,,5,100,596.727,11,$6.25 ,9,2,21,11,,,BlockProc,BlockList,switch,3,5,3,7,j,1,j,Keyboard,0,34,1149836,516,j,593,1150429,3400,random,2,,TrialProc,TrialList2,Stimulus\DIAMONDA.png,1,,,,2,1,85,,,
ConcurrentTasks,22,4,ConcurrentTasks-Data-22-4,no,60.039,pain,1,-1493553276,07-13-2018,7/13/2018 8:47:29 PM,16:47:29,no,no,5,,,,,,,,,RunProc,,,1,3,5,RunList,,,,5,100,596.727,11,$6.25 ,9,2,21,11,,,BlockProc,BlockList,switch,3,5,3,8,j,1,j,Keyboard,0,34,1153770,516,j,539,1154309,3200,random,2,,TrialProc,TrialList2,Stimulus\DIAMONDL.png,3,,,,2,1,86,,,
ConcurrentTasks,22,4,ConcurrentTasks-Data-22-4,no,60.039,pain,1,-1493553276,07-13-2018,7/13/2018 8:47:29 PM,16:47:29,no,no,5,,,,,,,,,RunProc,,,1,3,5,RunList,,,,5,100,596.727,11,$6.25 ,9,2,21,11,,,BlockProc,BlockList,switch,3,5,3,9,j,1,j,Keyboard,0,34,1157504,516,j,828,1158332,2800,random,3,3,TrialProc,TrialList3,Stimulus\SQUAREL.png,3,,,,,,,2,1,51
ConcurrentTasks,22,4,ConcurrentTasks-Data-22-4,no,60.039,pain,1,-1493553276,07-13-2018,7/13/2018 8:47:29 PM,16:47:29,no,no,5,,,,,,,,,RunProc,,,1,3,5,RunList,,,,5,100,596.727,11,$6.25 ,9,2,21,11,,,BlockProc,BlockList,switch,3,5,3,10,j,1,j,Keyboard,0,33,1160837,517,j,583,1161420,2800,random,3,,TrialProc,TrialList3,Stimulus\SQUAREA.png,1,,,,,,,2,1,52
ConcurrentTasks,22,4,ConcurrentTasks-Data-22-4,no,60.039,pain,1,-1493553276,07-13-2018,7/13/2018 8:47:29 PM,16:47:29,no,no,5,,,,,,,,,RunProc,,,1,3,5,RunList,,,,5,100,596.727,11,$6.25 ,9,2,21,11,,,BlockProc,BlockList,switch,3,5,3,11,f,1,f,Keyboard,0,18,1164155,516,f,425,1164580,2800,match,3,,TrialProc,TrialList3,Stimulus\SQUAREB.png,2,,,,,,,1,1,53
ConcurrentTasks,22,4,ConcurrentTasks-Data-22-4,no,60.039,pain,1,-1493553276,07-13-2018,7/13/2018 8:47:29 PM,16:47:29,no,no,5,,,,,,,,,RunProc,,,1,3,5,RunList,,,,6,100,595.182,11,$6.25 ,17,2,22,11,,,BlockProc,BlockList,switch,3,5,3,1,j,1,j,Keyboard,0,34,1170489,517,j,523,1171012,2800,random,1,1,TrialProc,TrialList1,Stimulus\SQUAREB.png,2,2,1,74,,,,,,
ConcurrentTasks,22,4,ConcurrentTasks-Data-22-4,no,60.039,pain,1,-1493553276,07-13-2018,7/13/2018 8:47:29 PM,16:47:29,no,no,5,,,,,,,,,RunProc,,,1,3,5,RunList,,,,6,100,595.182,11,$6.25 ,17,2,22,11,,,BlockProc,BlockList,switch,3,5,3,2,j,1,j,Keyboard,0,34,1173823,517,j,502,1174325,3400,random,1,,TrialProc,TrialList1,Stimulus\SQUAREA.png,1,2,1,75,,,,,,
ConcurrentTasks,22,4,ConcurrentTasks-Data-22-4,no,60.039,pain,1,-1493553276,07-13-2018,7/13/2018 8:47:29 PM,16:47:29,no,no,5,,,,,,,,,RunProc,,,1,3,5,RunList,,,,6,100,595.182,11,$6.25 ,17,2,22,11,,,BlockProc,BlockList,switch,3,5,3,3,f,1,f,Keyboard,0,34,1177757,517,f,423,1178180,2800,match,1,,TrialProc,TrialList1,Stimulus\SQUAREB.png,2,1,1,76,,,,,,
ConcurrentTasks,22,4,ConcurrentTasks-Data-22-4,no,60.039,pain,1,-1493553276,07-13-2018,7/13/2018 8:47:29 PM,16:47:29,no,no,5,,,,,,,,,RunProc,,,1,3,5,RunList,,,,6,100,595.182,11,$6.25 ,17,2,22,11,,,BlockProc,BlockList,switch,3,5,3,4,j,1,j,Keyboard,0,34,1181091,516,j,769,1181860,2600,random,2,2,TrialProc,TrialList2,Stimulus\DIAMONDL.png,3,,,,2,1,87,,,
ConcurrentTasks,22,4,ConcurrentTasks-Data-22-4,no,60.039,pain,1,-1493553276,07-13-2018,7/13/2018 8:47:29 PM,16:47:29,no,no,5,,,,,,,,,RunProc,,,1,3,5,RunList,,,,6,100,595.182,11,$6.25 ,17,2,22,11,,,BlockProc,BlockList,switch,3,5,3,5,f,1,f,Keyboard,0,33,1184224,517,f,436,1184660,2800,match,2,,TrialProc,TrialList2,Stimulus\DIAMONDE.png,4,,,,1,1,88,,,
ConcurrentTasks,22,4,ConcurrentTasks-Data-22-4,no,60.039,pain,1,-1493553276,07-13-2018,7/13/2018 8:47:29 PM,16:47:29,no,no,5,,,,,,,,,RunProc,,,1,3,5,RunList,,,,6,100,595.182,11,$6.25 ,17,2,22,11,,,BlockProc,BlockList,switch,3,5,3,6,f,1,f,Keyboard,0,18,1187542,516,f,518,1188060,3400,match,2,,TrialProc,TrialList2,Stimulus\DIAMONDT.png,0,,,,1,1,89,,,
ConcurrentTasks,22,4,ConcurrentTasks-Data-22-4,no,60.039,pain,1,-1493553276,07-13-2018,7/13/2018 8:47:29 PM,16:47:29,no,no,5,,,,,,,,,RunProc,,,1,3,5,RunList,,,,6,100,595.182,11,$6.25 ,17,2,22,11,,,BlockProc,BlockList,switch,3,5,3,7,f,1,f,Keyboard,0,34,1191476,516,f,408,1191884,2600,match,2,,TrialProc,TrialList2,Stimulus\DIAMONDA.png,1,,,,1,1,90,,,
ConcurrentTasks,22,4,ConcurrentTasks-Data-22-4,no,60.039,pain,1,-1493553276,07-13-2018,7/13/2018 8:47:29 PM,16:47:29,no,no,5,,,,,,,,,RunProc,,,1,3,5,RunList,,,,6,100,595.182,11,$6.25 ,17,2,22,11,,,BlockProc,BlockList,switch,3,5,3,8,j,1,j,Keyboard,0,33,1194609,517,j,587,1195196,3400,random,2,,TrialProc,TrialList2,Stimulus\DIAMONDL.png,3,,,,2,1,91,,,
ConcurrentTasks,22,4,ConcurrentTasks-Data-22-4,no,60.039,pain,1,-1493553276,07-13-2018,7/13/2018 8:47:29 PM,16:47:29,no,no,5,,,,,,,,,RunProc,,,1,3,5,RunList,,,,6,100,595.182,11,$6.25 ,17,2,22,11,,,BlockProc,BlockList,switch,3,5,3,9,j,1,j,Keyboard,0,34,1198543,517,j,541,1199084,2800,random,3,3,TrialProc,TrialList3,Stimulus\SQUAREB.png,2,,,,,,,2,1,54
ConcurrentTasks,22,4,ConcurrentTasks-Data-22-4,no,60.039,pain,1,-1493553276,07-13-2018,7/13/2018 8:47:29 PM,16:47:29,no,no,5,,,,,,,,,RunProc,,,1,3,5,RunList,,,,6,100,595.182,11,$6.25 ,17,2,22,11,,,BlockProc,BlockList,switch,3,5,3,10,j,1,j,Keyboard,0,18,1201861,516,j,1367,1203228,3200,random,3,,TrialProc,TrialList3,Stimulus\SQUARET.png,0,,,,,,,2,1,55
ConcurrentTasks,22,4,ConcurrentTasks-Data-22-4,no,60.039,pain,1,-1493553276,07-13-2018,7/13/2018 8:47:29 PM,16:47:29,no,no,5,,,,,,,,,RunProc,,,1,3,5,RunList,,,,6,100,595.182,11,$6.25 ,17,2,22,11,,,BlockProc,BlockList,switch,3,5,3,11,f,1,f,Keyboard,0,34,1205595,516,f,473,1206068,3400,match,3,,TrialProc,TrialList3,Stimulus\SQUAREA.png,1,,,,,,,1,1,56
ConcurrentTasks,22,4,ConcurrentTasks-Data-22-4,no,60.039,pain,1,-1493553276,07-13-2018,7/13/2018 8:47:29 PM,16:47:29,no,no,5,,,,,,,,,RunProc,,,1,3,5,RunList,,,,7,100,592.4,10,$5.25 ,60,2,23,10,,,BlockProc,BlockList,switch,3,5,2,1,f,1,f,Keyboard,0,34,1212529,517,f,387,1212916,3000,match,1,1,TrialProc,TrialList1,Stimulus\SQUARET.png,0,1,1,77,,,,,,
ConcurrentTasks,22,4,ConcurrentTasks-Data-22-4,no,60.039,pain,1,-1493553276,07-13-2018,7/13/2018 8:47:29 PM,16:47:29,no,no,5,,,,,,,,,RunProc,,,1,3,5,RunList,,,,7,100,592.4,10,$5.25 ,60,2,23,10,,,BlockProc,BlockList,switch,3,5,2,2,j,1,j,Keyboard,0,34,1216063,517,j,549,1216612,2600,random,1,,TrialProc,TrialList1,Stimulus\SQUAREE.png,4,2,1,78,,,,,,
ConcurrentTasks,22,4,ConcurrentTasks-Data-22-4,no,60.039,pain,1,-1493553276,07-13-2018,7/13/2018 8:47:29 PM,16:47:29,no,no,5,,,,,,,,,RunProc,,,1,3,5,RunList,,,,7,100,592.4,10,$5.25 ,60,2,23,10,,,BlockProc,BlockList,switch,3,5,2,3,j,1,j,Keyboard,0,34,1219197,516,j,639,1219836,3400,random,1,,TrialProc,TrialList1,Stimulus\SQUAREL.png,3,2,1,79,,,,,,
ConcurrentTasks,22,4,ConcurrentTasks-Data-22-4,no,60.039,pain,1,-1493553276,07-13-2018,7/13/2018 8:47:29 PM,16:47:29,no,no,5,,,,,,,,,RunProc,,,1,3,5,RunList,,,,7,100,592.4,10,$5.25 ,60,2,23,10,,,BlockProc,BlockList,switch,3,5,2,4,f,1,f,Keyboard,0,34,1223131,516,f,777,1223908,3000,match,2,2,TrialProc,TrialList2,Stimulus\DIAMONDT.png,0,,,,1,1,92,,,
ConcurrentTasks,22,4,ConcurrentTasks-Data-22-4,no,60.039,pain,1,-1493553276,07-13-2018,7/13/2018 8:47:29 PM,16:47:29,no,no,5,,,,,,,,,RunProc,,,1,3,5,RunList,,,,7,100,592.4,10,$5.25 ,60,2,23,10,,,BlockProc,BlockList,switch,3,5,2,5,j,1,j,Keyboard,0,34,1226665,516,j,659,1227324,3000,random,2,,TrialProc,TrialList2,Stimulus\DIAMONDL.png,3,,,,2,1,93,,,
ConcurrentTasks,22,4,ConcurrentTasks-Data-22-4,no,60.039,pain,1,-1493553276,07-13-2018,7/13/2018 8:47:29 PM,16:47:29,no,no,5,,,,,,,,,RunProc,,,1,3,5,RunList,,,,7,100,592.4,10,$5.25 ,60,2,23,10,,,BlockProc,BlockList,switch,3,5,2,6,j,1,j,Keyboard,0,34,1230199,516,j,637,1230836,3000,random,2,,TrialProc,TrialList2,Stimulus\DIAMONDT.png,0,,,,2,1,94,,,
ConcurrentTasks,22,4,ConcurrentTasks-Data-22-4,no,60.039,pain,1,-1493553276,07-13-2018,7/13/2018 8:47:29 PM,16:47:29,no,no,5,,,,,,,,,RunProc,,,1,3,5,RunList,,,,7,100,592.4,10,$5.25 ,60,2,23,10,,,BlockProc,BlockList,switch,3,5,2,7,f,1,f,Keyboard,0,33,1233732,517,f,520,1234252,3000,match,2,,TrialProc,TrialList2,Stimulus\DIAMONDA.png,1,,,,1,1,95,,,
ConcurrentTasks,22,4,ConcurrentTasks-Data-22-4,no,60.039,pain,1,-1493553276,07-13-2018,7/13/2018 8:47:29 PM,16:47:29,no,no,5,,,,,,,,,RunProc,,,1,3,5,RunList,,,,7,100,592.4,10,$5.25 ,60,2,23,10,,,BlockProc,BlockList,switch,3,5,2,8,j,1,j,Keyboard,0,34,1237266,517,j,602,1237868,2600,random,2,,TrialProc,TrialList2,Stimulus\DIAMONDT.png,0,,,,2,1,96,,,
ConcurrentTasks,22,4,ConcurrentTasks-Data-22-4,no,60.039,pain,1,-1493553276,07-13-2018,7/13/2018 8:47:29 PM,16:47:29,no,no,5,,,,,,,,,RunProc,,,1,3,5,RunList,,,,7,100,592.4,10,$5.25 ,60,2,23,10,,,BlockProc,BlockList,switch,3,5,2,9,j,1,j,Keyboard,0,34,1240400,517,j,532,1240932,2600,random,3,3,TrialProc,TrialList3,Stimulus\SQUAREB.png,2,,,,,,,2,1,57
ConcurrentTasks,22,4,ConcurrentTasks-Data-22-4,no,60.039,pain,1,-1493553276,07-13-2018,7/13/2018 8:47:29 PM,16:47:29,no,no,5,,,,,,,,,RunProc,,,1,3,5,RunList,,,,7,100,592.4,10,$5.25 ,60,2,23,10,,,BlockProc,BlockList,switch,3,5,2,10,j,1,j,Keyboard,0,34,1243534,517,j,622,1244156,3200,random,3,,TrialProc,TrialList3,Stimulus\SQUARET.png,0,,,,,,,2,1,58
ConcurrentTasks,22,4,ConcurrentTasks-Data-22-4,no,60.039,pain,1,-1493553276,07-13-2018,7/13/2018 8:47:29 PM,16:47:29,no,no,5,,,,,,,,,RunProc,,,1,3,5,RunList,,,,8,100,667.154,13,$8.25 ,18,2,24,13,,,BlockProc,BlockList,branch,5,5,3,1,j,1,j,Keyboard,0,34,1250268,517,j,552,1250820,3400,random,1,1,TrialProc,TrialList1,Stimulus\SQUAREA.png,1,2,1,80,,,,,,
ConcurrentTasks,22,4,ConcurrentTasks-Data-22-4,no,60.039,pain,1,-1493553276,07-13-2018,7/13/2018 8:47:29 PM,16:47:29,no,no,5,,,,,,,,,RunProc,,,1,3,5,RunList,,,,8,100,667.154,13,$8.25 ,18,2,24,13,,,BlockProc,BlockList,branch,5,5,3,2,f,1,f,Keyboard,0,34,1254202,517,f,426,1254628,2600,match,1,,TrialProc,TrialList1,Stimulus\SQUAREB.png,2,1,1,81,,,,,,
ConcurrentTasks,22,4,ConcurrentTasks-Data-22-4,no,60.039,pain,1,-1493553276,07-13-2018,7/13/2018 8:47:29 PM,16:47:29,no,no,5,,,,,,,,,RunProc,,,1,3,5,RunList,,,,8,100,667.154,13,$8.25 ,18,2,24,13,,,BlockProc,BlockList,branch,5,5,3,3,f,1,f,Keyboard,0,34,1257336,517,f,820,1258156,3400,match,1,,TrialProc,TrialList1,Stimulus\SQUAREL.png,3,1,1,82,,,,,,
ConcurrentTasks,22,4,ConcurrentTasks-Data-22-4,no,60.039,pain,1,-1493553276,07-13-2018,7/13/2018 8:47:29 PM,16:47:29,no,no,5,,,,,,,,,RunProc,,,1,3,5,RunList,,,,8,100,667.154,13,$8.25 ,18,2,24,13,,,BlockProc,BlockList,branch,5,5,3,4,j,1,j,Keyboard,0,34,1261270,517,j,582,1261852,3000,random,1,,TrialProc,TrialList1,Stimulus\SQUARET.png,0,2,1,83,,,,,,
ConcurrentTasks,22,4,ConcurrentTasks-Data-22-4,no,60.039,pain,1,-1493553276,07-13-2018,7/13/2018 8:47:29 PM,16:47:29,no,no,5,,,,,,,,,RunProc,,,1,3,5,RunList,,,,8,100,667.154,13,$8.25 ,18,2,24,13,,,BlockProc,BlockList,branch,5,5,3,5,j,1,j,Keyboard,0,34,1264804,517,j,704,1265508,2800,random,1,,TrialProc,TrialList1,Stimulus\SQUAREE.png,4,2,1,84,,,,,,
ConcurrentTasks,22,4,ConcurrentTasks-Data-22-4,no,60.039,pain,1,-1493553276,07-13-2018,7/13/2018 8:47:29 PM,16:47:29,no,no,5,,,,,,,,,RunProc,,,1,3,5,RunList,,,,8,100,667.154,13,$8.25 ,18,2,24,13,,,BlockProc,BlockList,branch,5,5,3,6,j,1,j,Keyboard,0,34,1268138,517,j,930,1269068,2600,random,2,2,TrialProc,TrialList2,Stimulus\CIRCLEL.png,3,,,,2,1,97,,,
ConcurrentTasks,22,4,ConcurrentTasks-Data-22-4,no,60.039,pain,1,-1493553276,07-13-2018,7/13/2018 8:47:29 PM,16:47:29,no,no,5,,,,,,,,,RunProc,,,1,3,5,RunList,,,,8,100,667.154,13,$8.25 ,18,2,24,13,,,BlockProc,BlockList,branch,5,5,3,7,f,1,f,Keyboard,0,34,1271272,516,f,900,1272172,2800,match,2,,TrialProc,TrialList2,Stimulus\CIRCLEE.png,4,,,,1,1,98,,,
ConcurrentTasks,22,4,ConcurrentTasks-Data-22-4,no,60.039,pain,1,-1493553276,07-13-2018,7/13/2018 8:47:29 PM,16:47:29,no,no,5,,,,,,,,,RunProc,,,1,3,5,RunList,,,,8,100,667.154,13,$8.25 ,18,2,24,13,,,BlockProc,BlockList,branch,5,5,3,8,j,1,j,Keyboard,0,34,1274606,516,j,670,1275276,2600,random,2,,TrialProc,TrialList2,Stimulus\CIRCLEB.png,2,,,,2,1,99,,,
ConcurrentTasks,22,4,ConcurrentTasks-Data-22-4,no,60.039,pain,1,-1493553276,07-13-2018,7/13/2018 8:47:29 PM,16:47:29,no,no,5,,,,,,,,,RunProc,,,1,3,5,RunList,,,,8,100,667.154,13,$8.25 ,18,2,24,13,,,BlockProc,BlockList,branch,5,5,3,9,j,1,j,Keyboard,0,33,1277739,517,j,657,1278396,2600,random,2,,TrialProc,TrialList2,Stimulus\CIRCLEA.png,1,,,,2,1,100,,,
ConcurrentTasks,22,4,ConcurrentTasks-Data-22-4,no,60.039,pain,1,-1493553276,07-13-2018,7/13/2018 8:47:29 PM,16:47:29,no,no,5,,,,,,,,,RunProc,,,1,3,5,RunList,,,,8,100,667.154,13,$8.25 ,18,2,24,13,,,BlockProc,BlockList,branch,5,5,3,10,j,1,j,Keyboard,0,34,1280873,517,j,683,1281556,3000,random,2,,TrialProc,TrialList2,Stimulus\CIRCLET.png,0,,,,2,1,101,,,
ConcurrentTasks,22,4,ConcurrentTasks-Data-22-4,no,60.039,pain,1,-1493553276,07-13-2018,7/13/2018 8:47:29 PM,16:47:29,no,no,5,,,,,,,,,RunProc,,,1,3,5,RunList,,,,8,100,667.154,13,$8.25 ,18,2,24,13,,,BlockProc,BlockList,branch,5,5,3,11,j,1,j,Keyboard,0,34,1284407,517,j,685,1285092,2600,random,3,3,TrialProc,TrialList3,Stimulus\SQUAREA.png,1,,,,,,,2,1,59
ConcurrentTasks,22,4,ConcurrentTasks-Data-22-4,no,60.039,pain,1,-1493553276,07-13-2018,7/13/2018 8:47:29 PM,16:47:29,no,no,5,,,,,,,,,RunProc,,,1,3,5,RunList,,,,8,100,667.154,13,$8.25 ,18,2,24,13,,,BlockProc,BlockList,branch,5,5,3,12,f,1,f,Keyboard,0,34,1287541,517,f,463,1288004,2600,match,3,,TrialProc,TrialList3,Stimulus\SQUAREB.png,2,,,,,,,1,1,60
ConcurrentTasks,22,4,ConcurrentTasks-Data-22-4,no,60.039,pain,1,-1493553276,07-13-2018,7/13/2018 8:47:29 PM,16:47:29,no,no,5,,,,,,,,,RunProc,,,1,3,5,RunList,,,,8,100,667.154,13,$8.25 ,18,2,24,13,,,BlockProc,BlockList,branch,5,5,3,13,j,1,j,Keyboard,0,34,1290675,517,j,601,1291276,2600,random,3,,TrialProc,TrialList3,Stimulus\SQUARET.png,0,,,,,,,2,1,61
ConcurrentTasks,22,4,ConcurrentTasks-Data-22-4,no,60.039,pain,1,-1493553276,07-13-2018,7/13/2018 8:47:29 PM,16:47:29,no,no,6,98.86364,100,600.341,96.34146,608.378,6,TRUE,Keyboard,RestProc,Keyboard,$49.90 ,2,3,6,RunList,6,$135.85 ,8.5,,,,,,,,,,,,,,,,,,,,,,,,,,,,,,,,,,,,,,,,,,,,,,
ConcurrentTasks,22,4,ConcurrentTasks-Data-22-4,no,60.039,pain,1,-1493553276,07-13-2018,7/13/2018 8:47:29 PM,16:47:29,no,no,7,,,,,,,,,RunProc,,,1,4,7,RunList,,,,1,100,562.455,11,$6.25 ,8,2,25,11,,,BlockProc,BlockList,branch,3,5,3,1,f,1,f,Keyboard,0,33,1374038,517,f,542,1374580,3000,match,1,1,TrialProc,TrialList1,Stimulus\SQUARET.png,0,1,1,85,,,,,,
ConcurrentTasks,22,4,ConcurrentTasks-Data-22-4,no,60.039,pain,1,-1493553276,07-13-2018,7/13/2018 8:47:29 PM,16:47:29,no,no,7,,,,,,,,,RunProc,,,1,4,7,RunList,,,,1,100,562.455,11,$6.25 ,8,2,25,11,,,BlockProc,BlockList,branch,3,5,3,2,f,1,f,Keyboard,0,34,1377572,517,f,424,1377996,3400,match,1,,TrialProc,TrialList1,Stimulus\SQUAREA.png,1,1,1,86,,,,,,
ConcurrentTasks,22,4,ConcurrentTasks-Data-22-4,no,60.039,pain,1,-1493553276,07-13-2018,7/13/2018 8:47:29 PM,16:47:29,no,no,7,,,,,,,,,RunProc,,,1,4,7,RunList,,,,1,100,562.455,11,$6.25 ,8,2,25,11,,,BlockProc,BlockList,branch,3,5,3,3,j,1,j,Keyboard,0,34,1381506,517,j,514,1382020,2800,random,1,,TrialProc,TrialList1,Stimulus\SQUAREL.png,3,2,1,87,,,,,,
ConcurrentTasks,22,4,ConcurrentTasks-Data-22-4,no,60.039,pain,1,-1493553276,07-13-2018,7/13/2018 8:47:29 PM,16:47:29,no,no,7,,,,,,,,,RunProc,,,1,4,7,RunList,,,,1,100,562.455,11,$6.25 ,8,2,25,11,,,BlockProc,BlockList,branch,3,5,3,4,j,1,j,Keyboard,0,34,1384840,517,j,516,1385356,3200,random,2,2,TrialProc,TrialList2,Stimulus\CIRCLEA.png,1,,,,2,1,102,,,
ConcurrentTasks,22,4,ConcurrentTasks-Data-22-4,no,60.039,pain,1,-1493553276,07-13-2018,7/13/2018 8:47:29 PM,16:47:29,no,no,7,,,,,,,,,RunProc,,,1,4,7,RunList,,,,1,100,562.455,11,$6.25 ,8,2,25,11,,,BlockProc,BlockList,branch,3,5,3,5,j,1,j,Keyboard,0,34,1388574,517,j,542,1389116,3200,random,2,,TrialProc,TrialList2,Stimulus\CIRCLEE.png,4,,,,2,1,103,,,
ConcurrentTasks,22,4,ConcurrentTasks-Data-22-4,no,60.039,pain,1,-1493553276,07-13-2018,7/13/2018 8:47:29 PM,16:47:29,no,no,7,,,,,,,,,RunProc,,,1,4,7,RunList,,,,1,100,562.455,11,$6.25 ,8,2,25,11,,,BlockProc,BlockList,branch,3,5,3,6,f,1,f,Keyboard,0,34,1392308,516,f,568,1392876,2800,match,2,,TrialProc,TrialList2,Stimulus\CIRCLET.png,0,,,,1,1,104,,,
ConcurrentTasks,22,4,ConcurrentTasks-Data-22-4,no,60.039,pain,1,-1493553276,07-13-2018,7/13/2018 8:47:29 PM,16:47:29,no,no,7,,,,,,,,,RunProc,,,1,4,7,RunList,,,,1,100,562.455,11,$6.25 ,8,2,25,11,,,BlockProc,BlockList,branch,3,5,3,7,f,1,f,Keyboard,0,34,1395642,516,f,570,1396212,3400,match,2,,TrialProc,TrialList2,Stimulus\CIRCLEA.png,1,,,,1,1,105,,,
ConcurrentTasks,22,4,ConcurrentTasks-Data-22-4,no,60.039,pain,1,-1493553276,07-13-2018,7/13/2018 8:47:29 PM,16:47:29,no,no,7,,,,,,,,,RunProc,,,1,4,7,RunList,,,,1,100,562.455,11,$6.25 ,8,2,25,11,,,BlockProc,BlockList,branch,3,5,3,8,f,1,f,Keyboard,0,34,1399576,516,f,492,1400068,3200,match,2,,TrialProc,TrialList2,Stimulus\CIRCLEB.png,2,,,,1,1,106,,,
ConcurrentTasks,22,4,ConcurrentTasks-Data-22-4,no,60.039,pain,1,-1493553276,07-13-2018,7/13/2018 8:47:29 PM,16:47:29,no,no,7,,,,,,,,,RunProc,,,1,4,7,RunList,,,,1,100,562.455,11,$6.25 ,8,2,25,11,,,BlockProc,BlockList,branch,3,5,3,9,j,1,j,Keyboard,0,33,1403309,517,j,855,1404164,3200,random,3,3,TrialProc,TrialList3,Stimulus\SQUAREB.png,2,,,,,,,2,1,62
ConcurrentTasks,22,4,ConcurrentTasks-Data-22-4,no,60.039,pain,1,-1493553276,07-13-2018,7/13/2018 8:47:29 PM,16:47:29,no,no,7,,,,,,,,,RunProc,,,1,4,7,RunList,,,,1,100,562.455,11,$6.25 ,8,2,25,11,,,BlockProc,BlockList,branch,3,5,3,10,j,1,j,Keyboard,0,18,1407027,516,j,657,1407684,3400,random,3,,TrialProc,TrialList3,Stimulus\SQUAREA.png,1,,,,,,,2,1,63
ConcurrentTasks,22,4,ConcurrentTasks-Data-22-4,no,60.039,pain,1,-1493553276,07-13-2018,7/13/2018 8:47:29 PM,16:47:29,no,no,7,,,,,,,,,RunProc,,,1,4,7,RunList,,,,1,100,562.455,11,$6.25 ,8,2,25,11,,,BlockProc,BlockList,branch,3,5,3,11,j,1,j,Keyboard,0,34,1410961,516,j,507,1411468,3400,random,3,,TrialProc,TrialList3,Stimulus\SQUAREE.png,4,,,,,,,2,1,64
ConcurrentTasks,22,4,ConcurrentTasks-Data-22-4,no,60.039,pain,1,-1493553276,07-13-2018,7/13/2018 8:47:29 PM,16:47:29,no,no,7,,,,,,,,,RunProc,,,1,4,7,RunList,,,,2,87.5,513.25,7,$3.15 ,50,2,26,8,,,BlockProc,BlockList,switch,3,3,2,1,f,1,f,Keyboard,0,34,1417895,517,f,533,1418428,2600,match,1,1,TrialProc,TrialList1,Stimulus\SQUARET.png,0,1,1,88,,,,,,
ConcurrentTasks,22,4,ConcurrentTasks-Data-22-4,no,60.039,pain,1,-1493553276,07-13-2018,7/13/2018 8:47:29 PM,16:47:29,no,no,7,,,,,,,,,RunProc,,,1,4,7,RunList,,,,2,87.5,513.25,7,$3.15 ,50,2,26,8,,,BlockProc,BlockList,switch,3,3,2,2,f,1,f,Keyboard,0,34,1421029,517,f,479,1421508,3200,match,1,,TrialProc,TrialList1,Stimulus\SQUAREA.png,1,1,1,89,,,,,,
ConcurrentTasks,22,4,ConcurrentTasks-Data-22-4,no,60.039,pain,1,-1493553276,07-13-2018,7/13/2018 8:47:29 PM,16:47:29,no,no,7,,,,,,,,,RunProc,,,1,4,7,RunList,,,,2,87.5,513.25,7,$3.15 ,50,2,26,8,,,BlockProc,BlockList,switch,3,3,2,3,j,1,j,Keyboard,0,34,1424763,517,j,545,1425308,2600,random,1,,TrialProc,TrialList1,Stimulus\SQUAREE.png,4,2,1,90,,,,,,
ConcurrentTasks,22,4,ConcurrentTasks-Data-22-4,no,60.039,pain,1,-1493553276,07-13-2018,7/13/2018 8:47:29 PM,16:47:29,no,no,7,,,,,,,,,RunProc,,,1,4,7,RunList,,,,2,87.5,513.25,7,$3.15 ,50,2,26,8,,,BlockProc,BlockList,switch,3,3,2,4,f,1,f,Keyboard,0,34,1427897,516,f,491,1428388,2800,match,2,2,TrialProc,TrialList2,Stimulus\DIAMONDT.png,0,,,,1,1,107,,,
ConcurrentTasks,22,4,ConcurrentTasks-Data-22-4,no,60.039,pain,1,-1493553276,07-13-2018,7/13/2018 8:47:29 PM,16:47:29,no,no,7,,,,,,,,,RunProc,,,1,4,7,RunList,,,,2,87.5,513.25,7,$3.15 ,50,2,26,8,,,BlockProc,BlockList,switch,3,3,2,5,f,1,f,Keyboard,0,34,1431231,516,f,397,1431628,3200,match,2,,TrialProc,TrialList2,Stimulus\DIAMONDA.png,1,,,,1,1,108,,,
ConcurrentTasks,22,4,ConcurrentTasks-Data-22-4,no,60.039,pain,1,-1493553276,07-13-2018,7/13/2018 8:47:29 PM,16:47:29,no,no,7,,,,,,,,,RunProc,,,1,4,7,RunList,,,,2,87.5,513.25,7,$3.15 ,50,2,26,8,,,BlockProc,BlockList,switch,3,3,2,6,f,1,f,Keyboard,0,34,1434965,516,f,487,1435452,3200,match,2,,TrialProc,TrialList2,Stimulus\DIAMONDB.png,2,,,,1,1,109,,,
ConcurrentTasks,22,4,ConcurrentTasks-Data-22-4,no,60.039,pain,1,-1493553276,07-13-2018,7/13/2018 8:47:29 PM,16:47:29,no,no,7,,,,,,,,,RunProc,,,1,4,7,RunList,,,,2,87.5,513.25,7,$3.15 ,50,2,26,8,,,BlockProc,BlockList,switch,3,3,2,7,f,0,f,Keyboard,0,33,1438698,517,j,722,1439420,2800,match,3,3,TrialProc,TrialList3,Stimulus\SQUARET.png,0,,,,,,,1,1,65
ConcurrentTasks,22,4,ConcurrentTasks-Data-22-4,no,60.039,pain,1,-1493553276,07-13-2018,7/13/2018 8:47:29 PM,16:47:29,no,no,7,,,,,,,,,RunProc,,,1,4,7,RunList,,,,2,87.5,513.25,7,$3.15 ,50,2,26,8,,,BlockProc,BlockList,switch,3,3,2,8,f,1,f,Keyboard,0,18,1442016,516,f,452,1442468,3400,match,3,,TrialProc,TrialList3,Stimulus\SQUAREA.png,1,,,,,,,1,1,66
ConcurrentTasks,22,4,ConcurrentTasks-Data-22-4,no,60.039,pain,1,-1493553276,07-13-2018,7/13/2018 8:47:29 PM,16:47:29,no,no,7,,,,,,,,,RunProc,,,1,4,7,RunList,,,,3,88.88889,658.778,8,$4.15 ,47,2,27,9,,,BlockProc,BlockList,branch,3,3,3,1,j,1,j,Keyboard,0,34,1448950,517,j,589,1449539,3200,random,1,1,TrialProc,TrialList1,Stimulus\SQUAREA.png,1,2,1,91,,,,,,
ConcurrentTasks,22,4,ConcurrentTasks-Data-22-4,no,60.039,pain,1,-1493553276,07-13-2018,7/13/2018 8:47:29 PM,16:47:29,no,no,7,,,,,,,,,RunProc,,,1,4,7,RunList,,,,3,88.88889,658.778,8,$4.15 ,47,2,27,9,,,BlockProc,BlockList,branch,3,3,3,2,f,1,f,Keyboard,0,34,1452684,517,f,423,1453107,3400,match,1,,TrialProc,TrialList1,Stimulus\SQUAREB.png,2,1,1,92,,,,,,
ConcurrentTasks,22,4,ConcurrentTasks-Data-22-4,no,60.039,pain,1,-1493553276,07-13-2018,7/13/2018 8:47:29 PM,16:47:29,no,no,7,,,,,,,,,RunProc,,,1,4,7,RunList,,,,3,88.88889,658.778,8,$4.15 ,47,2,27,9,,,BlockProc,BlockList,branch,3,3,3,3,j,1,j,Keyboard,0,34,1456618,517,j,529,1457147,2800,random,1,,TrialProc,TrialList1,Stimulus\SQUAREA.png,1,2,1,93,,,,,,
ConcurrentTasks,22,4,ConcurrentTasks-Data-22-4,no,60.039,pain,1,-1493553276,07-13-2018,7/13/2018 8:47:29 PM,16:47:29,no,no,7,,,,,,,,,RunProc,,,1,4,7,RunList,,,,3,88.88889,658.778,8,$4.15 ,47,2,27,9,,,BlockProc,BlockList,branch,3,3,3,4,j,1,j,Keyboard,0,34,1459952,517,j,819,1460771,2600,random,2,2,TrialProc,TrialList2,Stimulus\CIRCLEE.png,4,,,,2,1,110,,,
ConcurrentTasks,22,4,ConcurrentTasks-Data-22-4,no,60.039,pain,1,-1493553276,07-13-2018,7/13/2018 8:47:29 PM,16:47:29,no,no,7,,,,,,,,,RunProc,,,1,4,7,RunList,,,,3,88.88889,658.778,8,$4.15 ,47,2,27,9,,,BlockProc,BlockList,branch,3,3,3,5,f,1,f,Keyboard,0,34,1463086,516,f,453,1463539,2600,match,2,,TrialProc,TrialList2,Stimulus\CIRCLET.png,0,,,,1,1,111,,,
ConcurrentTasks,22,4,ConcurrentTasks-Data-22-4,no,60.039,pain,1,-1493553276,07-13-2018,7/13/2018 8:47:29 PM,16:47:29,no,no,7,,,,,,,,,RunProc,,,1,4,7,RunList,,,,3,88.88889,658.778,8,$4.15 ,47,2,27,9,,,BlockProc,BlockList,branch,3,3,3,6,f,1,f,Keyboard,0,33,1466219,517,f,888,1467107,3400,match,2,,TrialProc,TrialList2,Stimulus\CIRCLEA.png,1,,,,1,1,112,,,
ConcurrentTasks,22,4,ConcurrentTasks-Data-22-4,no,60.039,pain,1,-1493553276,07-13-2018,7/13/2018 8:47:29 PM,16:47:29,no,no,7,,,,,,,,,RunProc,,,1,4,7,RunList,,,,3,88.88889,658.778,8,$4.15 ,47,2,27,9,,,BlockProc,BlockList,branch,3,3,3,7,f,1,f,Keyboard,0,34,1470153,517,f,1098,1471251,2600,match,3,3,TrialProc,TrialList3,Stimulus\SQUAREB.png,2,,,,,,,1,1,67
ConcurrentTasks,22,4,ConcurrentTasks-Data-22-4,no,60.039,pain,1,-1493553276,07-13-2018,7/13/2018 8:47:29 PM,16:47:29,no,no,7,,,,,,,,,RunProc,,,1,4,7,RunList,,,,3,88.88889,658.778,8,$4.15 ,47,2,27,9,,,BlockProc,BlockList,branch,3,3,3,8,f,0,f,Keyboard,0,18,1473271,516,j,484,1473755,3200,match,3,,TrialProc,TrialList3,Stimulus\SQUAREL.png,3,,,,,,,1,1,68
ConcurrentTasks,22,4,ConcurrentTasks-Data-22-4,no,60.039,pain,1,-1493553276,07-13-2018,7/13/2018 8:47:29 PM,16:47:29,no,no,7,,,,,,,,,RunProc,,,1,4,7,RunList,,,,3,88.88889,658.778,8,$4.15 ,47,2,27,9,,,BlockProc,BlockList,branch,3,3,3,9,j,1,j,Keyboard,0,34,1477005,516,j,646,1477651,3200,random,3,,TrialProc,TrialList3,Stimulus\SQUAREB.png,2,,,,,,,2,1,69
ConcurrentTasks,22,4,ConcurrentTasks-Data-22-4,no,60.039,pain,1,-1493553276,07-13-2018,7/13/2018 8:47:29 PM,16:47:29,no,no,7,,,,,,,,,RunProc,,,1,4,7,RunList,,,,4,87.5,796.25,7,$3.15 ,35,2,28,8,,,BlockProc,BlockList,branch,3,3,2,1,j,1,j,Keyboard,0,34,1483739,517,j,568,1484307,3400,random,1,1,TrialProc,TrialList1,Stimulus\SQUAREB.png,2,2,1,94,,,,,,
ConcurrentTasks,22,4,ConcurrentTasks-Data-22-4,no,60.039,pain,1,-1493553276,07-13-2018,7/13/2018 8:47:29 PM,16:47:29,no,no,7,,,,,,,,,RunProc,,,1,4,7,RunList,,,,4,87.5,796.25,7,$3.15 ,35,2,28,8,,,BlockProc,BlockList,branch,3,3,2,2,f,1,f,Keyboard,0,34,1487673,517,f,426,1488099,2800,match,1,,TrialProc,TrialList1,Stimulus\SQUAREL.png,3,1,1,95,,,,,,
ConcurrentTasks,22,4,ConcurrentTasks-Data-22-4,no,60.039,pain,1,-1493553276,07-13-2018,7/13/2018 8:47:29 PM,16:47:29,no,no,7,,,,,,,,,RunProc,,,1,4,7,RunList,,,,4,87.5,796.25,7,$3.15 ,35,2,28,8,,,BlockProc,BlockList,branch,3,3,2,3,j,1,j,Keyboard,0,34,1491007,517,j,644,1491651,3200,random,1,,TrialProc,TrialList1,Stimulus\SQUAREA.png,1,2,1,96,,,,,,
ConcurrentTasks,22,4,ConcurrentTasks-Data-22-4,no,60.039,pain,1,-1493553276,07-13-2018,7/13/2018 8:47:29 PM,16:47:29,no,no,7,,,,,,,,,RunProc,,,1,4,7,RunList,,,,4,87.5,796.25,7,$3.15 ,35,2,28,8,,,BlockProc,BlockList,branch,3,3,2,4,j,1,j,Keyboard,0,34,1494741,516,j,774,1495515,3200,random,2,2,TrialProc,TrialList2,Stimulus\CIRCLEL.png,3,,,,2,1,113,,,
ConcurrentTasks,22,4,ConcurrentTasks-Data-22-4,no,60.039,pain,1,-1493553276,07-13-2018,7/13/2018 8:47:29 PM,16:47:29,no,no,7,,,,,,,,,RunProc,,,1,4,7,RunList,,,,4,87.5,796.25,7,$3.15 ,35,2,28,8,,,BlockProc,BlockList,branch,3,3,2,5,j,1,j,Keyboard,0,34,1498475,516,j,544,1499019,3000,random,2,,TrialProc,TrialList2,Stimulus\CIRCLEA.png,1,,,,2,1,114,,,
ConcurrentTasks,22,4,ConcurrentTasks-Data-22-4,no,60.039,pain,1,-1493553276,07-13-2018,7/13/2018 8:47:29 PM,16:47:29,no,no,7,,,,,,,,,RunProc,,,1,4,7,RunList,,,,4,87.5,796.25,7,$3.15 ,35,2,28,8,,,BlockProc,BlockList,branch,3,3,2,6,j,1,j,Keyboard,0,34,1502009,516,j,810,1502819,2600,random,2,,TrialProc,TrialList2,Stimulus\CIRCLEE.png,4,,,,2,1,115,,,
ConcurrentTasks,22,4,ConcurrentTasks-Data-22-4,no,60.039,pain,1,-1493553276,07-13-2018,7/13/2018 8:47:29 PM,16:47:29,no,no,7,,,,,,,,,RunProc,,,1,4,7,RunList,,,,4,87.5,796.25,7,$3.15 ,35,2,28,8,,,BlockProc,BlockList,branch,3,3,2,7,j,0,j,Keyboard,0,33,1505142,517,f,949,1506091,3400,random,3,3,TrialProc,TrialList3,Stimulus\SQUAREE.png,4,,,,,,,2,1,70
ConcurrentTasks,22,4,ConcurrentTasks-Data-22-4,no,60.039,pain,1,-1493553276,07-13-2018,7/13/2018 8:47:29 PM,16:47:29,no,no,7,,,,,,,,,RunProc,,,1,4,7,RunList,,,,4,87.5,796.25,7,$3.15 ,35,2,28,8,,,BlockProc,BlockList,branch,3,3,2,8,j,1,j,Keyboard,0,34,1509076,517,j,1655,1510731,3200,random,3,,TrialProc,TrialList3,Stimulus\SQUAREL.png,3,,,,,,,2,1,71
